trials.thisRepN,trials.thisTrialN,trials.thisN,trials.thisIndex,header.started,plus.started,minus.started,win_lose.started,polygon_green.started,polygon_red.started,plus.numClicks,plus.timesOn,plus.timesOff,minus.numClicks,minus.timesOn,minus.timesOff,green.response,red.response,participant,session,date,expName,psychopyVersion,frameRate,
0,0,0,0,5.986571500001446,5.986571500001446,5.986571500001446,5.986571500001446,5.986571500001446,5.986571500001446,0,,,1,[0.5005191000018385],[0.500523400001839],None,None,408434,001,2023-05-09_20h30.38.507,pb,2022.2.5,234.12843347810892,
1,0,1,0,6.491823399999703,6.491823399999703,6.491823399999703,6.491823399999703,6.491823399999703,6.491823399999703,0,,,2,"[0.5005191000018385, 0.1446438000020862]","[0.02853510000204551, 0.14464829999997164]",None,None,408434,001,2023-05-09_20h30.38.507,pb,2022.2.5,234.12843347810892,
2,0,2,0,6.651565500000288,6.651565500000288,6.651565500000288,6.651565500000288,6.651565500000288,6.651565500000288,0,,,3,"[0.5005191000018385, 0.1446438000020862, 0.17122329999983776]","[0.02853510000204551, 0.027479799999127863, 0.1712273000011919]",None,None,408434,001,2023-05-09_20h30.38.507,pb,2022.2.5,234.12843347810892,
3,0,3,0,6.838440999999875,6.838440999999875,6.838440999999875,6.838440999999875,6.838440999999875,6.838440999999875,0,,,4,"[0.5005191000018385, 0.1446438000020862, 0.17122329999983776, 0.11126950000107172]","[0.02853510000204551, 0.027479799999127863, 0.02713710000170977, 0.11127350000242586]",None,None,408434,001,2023-05-09_20h30.38.507,pb,2022.2.5,234.12843347810892,
4,0,4,0,6.968621500000154,6.968621500000154,6.968621500000154,6.968621500000154,6.968621500000154,6.968621500000154,0,,,5,"[0.5005191000018385, 0.1446438000020862, 0.17122329999983776, 0.11126950000107172, 0.14343219999864232]","[0.02853510000204551, 0.027479799999127863, 0.02713710000170977, 0.05909389999942505, 0.14343649999864283]",None,None,408434,001,2023-05-09_20h30.38.507,pb,2022.2.5,234.12843347810892,
5,0,5,0,7.12518529999943,7.12518529999943,7.12518529999943,7.12518529999943,7.12518529999943,7.12518529999943,0,,,6,"[0.5005191000018385, 0.1446438000020862, 0.17122329999983776, 0.11126950000107172, 0.14343219999864232, 0.1366517999995267]","[0.02853510000204551, 0.027479799999127863, 0.02713710000170977, 0.05909389999942505, 0.05712929999936023, 0.13665589999800432]",None,None,408434,001,2023-05-09_20h30.38.507,pb,2022.2.5,234.12843347810892,
6,0,6,0,7.27934390000155,7.27934390000155,7.27934390000155,7.27934390000155,7.27934390000155,7.27934390000155,0,,,7,"[0.5005191000018385, 0.1446438000020862, 0.17122329999983776, 0.11126950000107172, 0.14343219999864232, 0.1366517999995267, 0.1391336999986379]","[0.02853510000204551, 0.027479799999127863, 0.02713710000170977, 0.05909389999942505, 0.05712929999936023, 0.05545219999839901, 0.1391379999986384]",None,None,408434,001,2023-05-09_20h30.38.507,pb,2022.2.5,234.12843347810892,
7,0,7,0,7.437187700001232,7.437187700001232,7.437187700001232,7.437187700001232,7.437187700001232,7.437187700001232,0,,,8,"[0.5005191000018385, 0.1446438000020862, 0.17122329999983776, 0.11126950000107172, 0.14343219999864232, 0.1366517999995267, 0.1391336999986379, 0.14353400000254624]","[0.02853510000204551, 0.027479799999127863, 0.02713710000170977, 0.05909389999942505, 0.05712929999936023, 0.05545219999839901, 0.060151800000312505, 0.1435380000002624]",None,None,408434,001,2023-05-09_20h30.38.507,pb,2022.2.5,234.12843347810892,
8,0,8,0,7.5923492000001715,7.5923492000001715,7.5923492000001715,7.5923492000001715,7.5923492000001715,7.5923492000001715,0,,,9,"[0.5005191000018385, 0.1446438000020862, 0.17122329999983776, 0.11126950000107172, 0.14343219999864232, 0.1366517999995267, 0.1391336999986379, 0.14353400000254624, 0.13692270000319695]","[0.02853510000204551, 0.027479799999127863, 0.02713710000170977, 0.05909389999942505, 0.05712929999936023, 0.05545219999839901, 0.060151800000312505, 0.057548300002963515, 0.13692680000167456]",None,None,408434,001,2023-05-09_20h30.38.507,pb,2022.2.5,234.12843347810892,
9,0,9,0,7.745458900000813,7.745458900000813,7.745458900000813,7.745458900000813,7.745458900000813,7.745458900000813,0,,,10,"[0.5005191000018385, 0.1446438000020862, 0.17122329999983776, 0.11126950000107172, 0.14343219999864232, 0.1366517999995267, 0.1391336999986379, 0.14353400000254624, 0.13692270000319695, 0.1867999999994936]","[0.02853510000204551, 0.027479799999127863, 0.02713710000170977, 0.05909389999942505, 0.05712929999936023, 0.05545219999839901, 0.060151800000312505, 0.057548300002963515, 0.05470509999940987, 0.1868042999994941]",None,None,408434,001,2023-05-09_20h30.38.507,pb,2022.2.5,234.12843347810892,
10,0,10,0,7.949297900002421,7.949297900002421,7.949297900002421,7.949297900002421,7.949297900002421,7.949297900002421,0,,,11,"[0.5005191000018385, 0.1446438000020862, 0.17122329999983776, 0.11126950000107172, 0.14343219999864232, 0.1366517999995267, 0.1391336999986379, 0.14353400000254624, 0.13692270000319695, 0.1867999999994936, 0.13833200000226498]","[0.02853510000204551, 0.027479799999127863, 0.02713710000170977, 0.05909389999942505, 0.05712929999936023, 0.05545219999839901, 0.060151800000312505, 0.057548300002963515, 0.05470509999940987, 0.029627600000821985, 0.13833620000150404]",None,None,408434,001,2023-05-09_20h30.38.507,pb,2022.2.5,234.12843347810892,
11,0,11,0,8.099993700001505,8.099993700001505,8.099993700001505,8.099993700001505,8.099993700001505,8.099993700001505,0,,,12,"[0.5005191000018385, 0.1446438000020862, 0.17122329999983776, 0.11126950000107172, 0.14343219999864232, 0.1366517999995267, 0.1391336999986379, 0.14353400000254624, 0.13692270000319695, 0.1867999999994936, 0.13833200000226498, 0.13468310000098427]","[0.02853510000204551, 0.027479799999127863, 0.02713710000170977, 0.05909389999942505, 0.05712929999936023, 0.05545219999839901, 0.060151800000312505, 0.057548300002963515, 0.05470509999940987, 0.029627600000821985, 0.056055600001855055, 0.13468730000022333]",None,None,408434,001,2023-05-09_20h30.38.507,pb,2022.2.5,234.12843347810892,
12,0,12,0,8.250973000001977,8.250973000001977,8.250973000001977,8.250973000001977,8.250973000001977,8.250973000001977,0,,,13,"[0.5005191000018385, 0.1446438000020862, 0.17122329999983776, 0.11126950000107172, 0.14343219999864232, 0.1366517999995267, 0.1391336999986379, 0.14353400000254624, 0.13692270000319695, 0.1867999999994936, 0.13833200000226498, 0.13468310000098427, 0.16345089999958873]","[0.02853510000204551, 0.027479799999127863, 0.02713710000170977, 0.05909389999942505, 0.05712929999936023, 0.05545219999839901, 0.060151800000312505, 0.057548300002963515, 0.05470509999940987, 0.029627600000821985, 0.056055600001855055, 0.055905700002767844, 0.16345500000170432]",None,None,408434,001,2023-05-09_20h30.38.507,pb,2022.2.5,234.12843347810892,
13,0,13,0,8.428255500002706,8.428255500002706,8.428255500002706,8.428255500002706,8.428255500002706,8.428255500002706,1,[0.27357430000120075],[0.2735787000019627],13,"[0.5005191000018385, 0.1446438000020862, 0.17122329999983776, 0.11126950000107172, 0.14343219999864232, 0.1366517999995267, 0.1391336999986379, 0.14353400000254624, 0.13692270000319695, 0.1867999999994936, 0.13833200000226498, 0.13468310000098427, 0.16345089999958873]","[0.02853510000204551, 0.027479799999127863, 0.02713710000170977, 0.05909389999942505, 0.05712929999936023, 0.05545219999839901, 0.060151800000312505, 0.057548300002963515, 0.05470509999940987, 0.029627600000821985, 0.056055600001855055, 0.055905700002767844, 0.05579070000021602]",None,None,408434,001,2023-05-09_20h30.38.507,pb,2022.2.5,234.12843347810892,
14,0,14,0,8.717267700001685,8.717267700001685,8.717267700001685,8.717267700001685,8.717267700001685,8.717267700001685,2,"[0.27357430000120075, 0.24416109999947366]","[0.05571779999809223, 0.24416519999795128]",13,"[0.5005191000018385, 0.1446438000020862, 0.17122329999983776, 0.11126950000107172, 0.14343219999864232, 0.1366517999995267, 0.1391336999986379, 0.14353400000254624, 0.13692270000319695, 0.1867999999994936, 0.13833200000226498, 0.13468310000098427, 0.16345089999958873]","[0.02853510000204551, 0.027479799999127863, 0.02713710000170977, 0.05909389999942505, 0.05712929999936023, 0.05545219999839901, 0.060151800000312505, 0.057548300002963515, 0.05470509999940987, 0.029627600000821985, 0.056055600001855055, 0.055905700002767844, 0.05579070000021602]",None,None,408434,001,2023-05-09_20h30.38.507,pb,2022.2.5,234.12843347810892,
15,0,15,0,8.97619130000021,8.97619130000021,8.97619130000021,8.97619130000021,8.97619130000021,8.97619130000021,3,"[0.27357430000120075, 0.24416109999947366, 0.16444500000216067]","[0.05571779999809223, 0.027078099999926053, 0.16444889999911538]",13,"[0.5005191000018385, 0.1446438000020862, 0.17122329999983776, 0.11126950000107172, 0.14343219999864232, 0.1366517999995267, 0.1391336999986379, 0.14353400000254624, 0.13692270000319695, 0.1867999999994936, 0.13833200000226498, 0.13468310000098427, 0.16345089999958873]","[0.02853510000204551, 0.027479799999127863, 0.02713710000170977, 0.05909389999942505, 0.05712929999936023, 0.05545219999839901, 0.060151800000312505, 0.057548300002963515, 0.05470509999940987, 0.029627600000821985, 0.056055600001855055, 0.055905700002767844, 0.05579070000021602]",None,None,408434,001,2023-05-09_20h30.38.507,pb,2022.2.5,234.12843347810892,
16,0,16,0,9.155568199999834,9.155568199999834,9.155568199999834,9.155568199999834,9.155568199999834,9.155568199999834,4,"[0.27357430000120075, 0.24416109999947366, 0.16444500000216067, 0.1385950000003504]","[0.05571779999809223, 0.027078099999926053, 0.05566289999842411, 0.13859909999882802]",13,"[0.5005191000018385, 0.1446438000020862, 0.17122329999983776, 0.11126950000107172, 0.14343219999864232, 0.1366517999995267, 0.1391336999986379, 0.14353400000254624, 0.13692270000319695, 0.1867999999994936, 0.13833200000226498, 0.13468310000098427, 0.16345089999958873]","[0.02853510000204551, 0.027479799999127863, 0.02713710000170977, 0.05909389999942505, 0.05712929999936023, 0.05545219999839901, 0.060151800000312505, 0.057548300002963515, 0.05470509999940987, 0.029627600000821985, 0.056055600001855055, 0.055905700002767844, 0.05579070000021602]",None,None,408434,001,2023-05-09_20h30.38.507,pb,2022.2.5,234.12843347810892,
17,0,17,0,9.308699100001832,9.308699100001832,9.308699100001832,9.308699100001832,9.308699100001832,9.308699100001832,5,"[0.27357430000120075, 0.24416109999947366, 0.16444500000216067, 0.1385950000003504, 0.1890903999992588]","[0.05571779999809223, 0.027078099999926053, 0.05566289999842411, 0.05597219999981462, 0.18909459999849787]",13,"[0.5005191000018385, 0.1446438000020862, 0.17122329999983776, 0.11126950000107172, 0.14343219999864232, 0.1366517999995267, 0.1391336999986379, 0.14353400000254624, 0.13692270000319695, 0.1867999999994936, 0.13833200000226498, 0.13468310000098427, 0.16345089999958873]","[0.02853510000204551, 0.027479799999127863, 0.02713710000170977, 0.05909389999942505, 0.05712929999936023, 0.05545219999839901, 0.060151800000312505, 0.057548300002963515, 0.05470509999940987, 0.029627600000821985, 0.056055600001855055, 0.055905700002767844, 0.05579070000021602]",None,None,408434,001,2023-05-09_20h30.38.507,pb,2022.2.5,234.12843347810892,
18,0,18,0,9.51441270000214,9.51441270000214,9.51441270000214,9.51441270000214,9.51441270000214,9.51441270000214,6,"[0.27357430000120075, 0.24416109999947366, 0.16444500000216067, 0.1385950000003504, 0.1890903999992588, 0.1382473999983631]","[0.05571779999809223, 0.027078099999926053, 0.05566289999842411, 0.05597219999981462, 0.028672299999016104, 0.1382577999975183]",13,"[0.5005191000018385, 0.1446438000020862, 0.17122329999983776, 0.11126950000107172, 0.14343219999864232, 0.1366517999995267, 0.1391336999986379, 0.14353400000254624, 0.13692270000319695, 0.1867999999994936, 0.13833200000226498, 0.13468310000098427, 0.16345089999958873]","[0.02853510000204551, 0.027479799999127863, 0.02713710000170977, 0.05909389999942505, 0.05712929999936023, 0.05545219999839901, 0.060151800000312505, 0.057548300002963515, 0.05470509999940987, 0.029627600000821985, 0.056055600001855055, 0.055905700002767844, 0.05579070000021602]",None,None,408434,001,2023-05-09_20h30.38.507,pb,2022.2.5,234.12843347810892,
19,0,19,0,9.665639999999257,9.665639999999257,9.665639999999257,9.665639999999257,9.665639999999257,9.665639999999257,7,"[0.27357430000120075, 0.24416109999947366, 0.16444500000216067, 0.1385950000003504, 0.1890903999992588, 0.1382473999983631, 0.19143070000063744]","[0.05571779999809223, 0.027078099999926053, 0.05566289999842411, 0.05597219999981462, 0.028672299999016104, 0.055925000000570435, 0.19143460000123014]",13,"[0.5005191000018385, 0.1446438000020862, 0.17122329999983776, 0.11126950000107172, 0.14343219999864232, 0.1366517999995267, 0.1391336999986379, 0.14353400000254624, 0.13692270000319695, 0.1867999999994936, 0.13833200000226498, 0.13468310000098427, 0.16345089999958873]","[0.02853510000204551, 0.027479799999127863, 0.02713710000170977, 0.05909389999942505, 0.05712929999936023, 0.05545219999839901, 0.060151800000312505, 0.057548300002963515, 0.05470509999940987, 0.029627600000821985, 0.056055600001855055, 0.055905700002767844, 0.05579070000021602]",None,None,408434,001,2023-05-09_20h30.38.507,pb,2022.2.5,234.12843347810892,
20,0,20,0,9.871677099999943,9.871677099999943,9.871677099999943,9.871677099999943,9.871677099999943,9.871677099999943,8,"[0.27357430000120075, 0.24416109999947366, 0.16444500000216067, 0.1385950000003504, 0.1890903999992588, 0.1382473999983631, 0.19143070000063744, 0.13838329999998678]","[0.05571779999809223, 0.027078099999926053, 0.05566289999842411, 0.05597219999981462, 0.028672299999016104, 0.055925000000570435, 0.02671580000242102, 0.13838720000057947]",13,"[0.5005191000018385, 0.1446438000020862, 0.17122329999983776, 0.11126950000107172, 0.14343219999864232, 0.1366517999995267, 0.1391336999986379, 0.14353400000254624, 0.13692270000319695, 0.1867999999994936, 0.13833200000226498, 0.13468310000098427, 0.16345089999958873]","[0.02853510000204551, 0.027479799999127863, 0.02713710000170977, 0.05909389999942505, 0.05712929999936023, 0.05545219999839901, 0.060151800000312505, 0.057548300002963515, 0.05470509999940987, 0.029627600000821985, 0.056055600001855055, 0.055905700002767844, 0.05579070000021602]",None,None,408434,001,2023-05-09_20h30.38.507,pb,2022.2.5,234.12843347810892,
21,0,21,0,10.02823250000074,10.02823250000074,10.02823250000074,10.02823250000074,10.02823250000074,10.02823250000074,9,"[0.27357430000120075, 0.24416109999947366, 0.16444500000216067, 0.1385950000003504, 0.1890903999992588, 0.1382473999983631, 0.19143070000063744, 0.13838329999998678, 0.170687400001043]","[0.05571779999809223, 0.027078099999926053, 0.05566289999842411, 0.05597219999981462, 0.028672299999016104, 0.055925000000570435, 0.02671580000242102, 0.08611580000069807, 0.17069210000045132]",13,"[0.5005191000018385, 0.1446438000020862, 0.17122329999983776, 0.11126950000107172, 0.14343219999864232, 0.1366517999995267, 0.1391336999986379, 0.14353400000254624, 0.13692270000319695, 0.1867999999994936, 0.13833200000226498, 0.13468310000098427, 0.16345089999958873]","[0.02853510000204551, 0.027479799999127863, 0.02713710000170977, 0.05909389999942505, 0.05712929999936023, 0.05545219999839901, 0.060151800000312505, 0.057548300002963515, 0.05470509999940987, 0.029627600000821985, 0.056055600001855055, 0.055905700002767844, 0.05579070000021602]",None,None,408434,001,2023-05-09_20h30.38.507,pb,2022.2.5,234.12843347810892,
22,0,22,0,10.211306500001228,10.211306500001228,10.211306500001228,10.211306500001228,10.211306500001228,10.211306500001228,10,"[0.27357430000120075, 0.24416109999947366, 0.16444500000216067, 0.1385950000003504, 0.1890903999992588, 0.1382473999983631, 0.19143070000063744, 0.13838329999998678, 0.170687400001043, 0.16236710000157473]","[0.05571779999809223, 0.027078099999926053, 0.05566289999842411, 0.05597219999981462, 0.028672299999016104, 0.055925000000570435, 0.02671580000242102, 0.08611580000069807, 0.0561874999984866, 0.16237140000157524]",13,"[0.5005191000018385, 0.1446438000020862, 0.17122329999983776, 0.11126950000107172, 0.14343219999864232, 0.1366517999995267, 0.1391336999986379, 0.14353400000254624, 0.13692270000319695, 0.1867999999994936, 0.13833200000226498, 0.13468310000098427, 0.16345089999958873]","[0.02853510000204551, 0.027479799999127863, 0.02713710000170977, 0.05909389999942505, 0.05712929999936023, 0.05545219999839901, 0.060151800000312505, 0.057548300002963515, 0.05470509999940987, 0.029627600000821985, 0.056055600001855055, 0.055905700002767844, 0.05579070000021602]",None,None,408434,001,2023-05-09_20h30.38.507,pb,2022.2.5,234.12843347810892,
23,0,23,0,10.392162800002552,10.392162800002552,10.392162800002552,10.392162800002552,10.392162800002552,10.392162800002552,11,"[0.27357430000120075, 0.24416109999947366, 0.16444500000216067, 0.1385950000003504, 0.1890903999992588, 0.1382473999983631, 0.19143070000063744, 0.13838329999998678, 0.170687400001043, 0.16236710000157473, 0.14148600000044098]","[0.05571779999809223, 0.027078099999926053, 0.05566289999842411, 0.05597219999981462, 0.028672299999016104, 0.055925000000570435, 0.02671580000242102, 0.08611580000069807, 0.0561874999984866, 0.0588075999985449, 0.1414900999989186]",13,"[0.5005191000018385, 0.1446438000020862, 0.17122329999983776, 0.11126950000107172, 0.14343219999864232, 0.1366517999995267, 0.1391336999986379, 0.14353400000254624, 0.13692270000319695, 0.1867999999994936, 0.13833200000226498, 0.13468310000098427, 0.16345089999958873]","[0.02853510000204551, 0.027479799999127863, 0.02713710000170977, 0.05909389999942505, 0.05712929999936023, 0.05545219999839901, 0.060151800000312505, 0.057548300002963515, 0.05470509999940987, 0.029627600000821985, 0.056055600001855055, 0.055905700002767844, 0.05579070000021602]",None,None,408434,001,2023-05-09_20h30.38.507,pb,2022.2.5,234.12843347810892,
24,0,24,0,10.545428400000674,10.545428400000674,10.545428400000674,10.545428400000674,10.545428400000674,10.545428400000674,12,"[0.27357430000120075, 0.24416109999947366, 0.16444500000216067, 0.1385950000003504, 0.1890903999992588, 0.1382473999983631, 0.19143070000063744, 0.13838329999998678, 0.170687400001043, 0.16236710000157473, 0.14148600000044098, 0.19241179999880842]","[0.05571779999809223, 0.027078099999926053, 0.05566289999842411, 0.05597219999981462, 0.028672299999016104, 0.055925000000570435, 0.02671580000242102, 0.08611580000069807, 0.0561874999984866, 0.0588075999985449, 0.08476549999977578, 0.19241589999728603]",13,"[0.5005191000018385, 0.1446438000020862, 0.17122329999983776, 0.11126950000107172, 0.14343219999864232, 0.1366517999995267, 0.1391336999986379, 0.14353400000254624, 0.13692270000319695, 0.1867999999994936, 0.13833200000226498, 0.13468310000098427, 0.16345089999958873]","[0.02853510000204551, 0.027479799999127863, 0.02713710000170977, 0.05909389999942505, 0.05712929999936023, 0.05545219999839901, 0.060151800000312505, 0.057548300002963515, 0.05470509999940987, 0.029627600000821985, 0.056055600001855055, 0.055905700002767844, 0.05579070000021602]",None,None,408434,001,2023-05-09_20h30.38.507,pb,2022.2.5,234.12843347810892,
25,0,25,0,10.75552400000015,10.75552400000015,10.75552400000015,10.75552400000015,10.75552400000015,10.75552400000015,13,"[0.27357430000120075, 0.24416109999947366, 0.16444500000216067, 0.1385950000003504, 0.1890903999992588, 0.1382473999983631, 0.19143070000063744, 0.13838329999998678, 0.170687400001043, 0.16236710000157473, 0.14148600000044098, 0.19241179999880842, 0.16483750000043074]","[0.05571779999809223, 0.027078099999926053, 0.05566289999842411, 0.05597219999981462, 0.028672299999016104, 0.055925000000570435, 0.02671580000242102, 0.08611580000069807, 0.0561874999984866, 0.0588075999985449, 0.08476549999977578, 0.05758100000093691, 0.16484140000102343]",13,"[0.5005191000018385, 0.1446438000020862, 0.17122329999983776, 0.11126950000107172, 0.14343219999864232, 0.1366517999995267, 0.1391336999986379, 0.14353400000254624, 0.13692270000319695, 0.1867999999994936, 0.13833200000226498, 0.13468310000098427, 0.16345089999958873]","[0.02853510000204551, 0.027479799999127863, 0.02713710000170977, 0.05909389999942505, 0.05712929999936023, 0.05545219999839901, 0.060151800000312505, 0.057548300002963515, 0.05470509999940987, 0.029627600000821985, 0.056055600001855055, 0.055905700002767844, 0.05579070000021602]",None,None,408434,001,2023-05-09_20h30.38.507,pb,2022.2.5,234.12843347810892,
26,0,26,0,10.932111000001896,10.932111000001896,10.932111000001896,10.932111000001896,10.932111000001896,10.932111000001896,14,"[0.27357430000120075, 0.24416109999947366, 0.16444500000216067, 0.1385950000003504, 0.1890903999992588, 0.1382473999983631, 0.19143070000063744, 0.13838329999998678, 0.170687400001043, 0.16236710000157473, 0.14148600000044098, 0.19241179999880842, 0.16483750000043074, 0.1914117999986047]","[0.05571779999809223, 0.027078099999926053, 0.05566289999842411, 0.05597219999981462, 0.028672299999016104, 0.055925000000570435, 0.02671580000242102, 0.08611580000069807, 0.0561874999984866, 0.0588075999985449, 0.08476549999977578, 0.05758100000093691, 0.05553370000052382, 0.19141599999784376]",13,"[0.5005191000018385, 0.1446438000020862, 0.17122329999983776, 0.11126950000107172, 0.14343219999864232, 0.1366517999995267, 0.1391336999986379, 0.14353400000254624, 0.13692270000319695, 0.1867999999994936, 0.13833200000226498, 0.13468310000098427, 0.16345089999958873]","[0.02853510000204551, 0.027479799999127863, 0.02713710000170977, 0.05909389999942505, 0.05712929999936023, 0.05545219999839901, 0.060151800000312505, 0.057548300002963515, 0.05470509999940987, 0.029627600000821985, 0.056055600001855055, 0.055905700002767844, 0.05579070000021602]",None,None,408434,001,2023-05-09_20h30.38.507,pb,2022.2.5,234.12843347810892,
27,0,27,0,11.138753800001723,11.138753800001723,11.138753800001723,11.138753800001723,11.138753800001723,11.138753800001723,15,"[0.27357430000120075, 0.24416109999947366, 0.16444500000216067, 0.1385950000003504, 0.1890903999992588, 0.1382473999983631, 0.19143070000063744, 0.13838329999998678, 0.170687400001043, 0.16236710000157473, 0.14148600000044098, 0.19241179999880842, 0.16483750000043074, 0.1914117999986047, 0.13866170000255806]","[0.05571779999809223, 0.027078099999926053, 0.05566289999842411, 0.05597219999981462, 0.028672299999016104, 0.055925000000570435, 0.02671580000242102, 0.08611580000069807, 0.0561874999984866, 0.0588075999985449, 0.08476549999977578, 0.05758100000093691, 0.05553370000052382, 0.026882300000579562, 0.13866580000103568]",13,"[0.5005191000018385, 0.1446438000020862, 0.17122329999983776, 0.11126950000107172, 0.14343219999864232, 0.1366517999995267, 0.1391336999986379, 0.14353400000254624, 0.13692270000319695, 0.1867999999994936, 0.13833200000226498, 0.13468310000098427, 0.16345089999958873]","[0.02853510000204551, 0.027479799999127863, 0.02713710000170977, 0.05909389999942505, 0.05712929999936023, 0.05545219999839901, 0.060151800000312505, 0.057548300002963515, 0.05470509999940987, 0.029627600000821985, 0.056055600001855055, 0.055905700002767844, 0.05579070000021602]",None,None,408434,001,2023-05-09_20h30.38.507,pb,2022.2.5,234.12843347810892,
28,0,28,0,11.292126899999857,11.292126899999857,11.292126899999857,11.292126899999857,11.292126899999857,11.292126899999857,16,"[0.27357430000120075, 0.24416109999947366, 0.16444500000216067, 0.1385950000003504, 0.1890903999992588, 0.1382473999983631, 0.19143070000063744, 0.13838329999998678, 0.170687400001043, 0.16236710000157473, 0.14148600000044098, 0.19241179999880842, 0.16483750000043074, 0.1914117999986047, 0.13866170000255806, 0.19045579999874462]","[0.05571779999809223, 0.027078099999926053, 0.05566289999842411, 0.05597219999981462, 0.028672299999016104, 0.055925000000570435, 0.02671580000242102, 0.08611580000069807, 0.0561874999984866, 0.0588075999985449, 0.08476549999977578, 0.05758100000093691, 0.05553370000052382, 0.026882300000579562, 0.056184099998063175, 0.19045980000009877]",13,"[0.5005191000018385, 0.1446438000020862, 0.17122329999983776, 0.11126950000107172, 0.14343219999864232, 0.1366517999995267, 0.1391336999986379, 0.14353400000254624, 0.13692270000319695, 0.1867999999994936, 0.13833200000226498, 0.13468310000098427, 0.16345089999958873]","[0.02853510000204551, 0.027479799999127863, 0.02713710000170977, 0.05909389999942505, 0.05712929999936023, 0.05545219999839901, 0.060151800000312505, 0.057548300002963515, 0.05470509999940987, 0.029627600000821985, 0.056055600001855055, 0.055905700002767844, 0.05579070000021602]",None,None,408434,001,2023-05-09_20h30.38.507,pb,2022.2.5,234.12843347810892,
29,0,29,0,11.500796200001787,11.500796200001787,11.500796200001787,11.500796200001787,11.500796200001787,11.500796200001787,17,"[0.27357430000120075, 0.24416109999947366, 0.16444500000216067, 0.1385950000003504, 0.1890903999992588, 0.1382473999983631, 0.19143070000063744, 0.13838329999998678, 0.170687400001043, 0.16236710000157473, 0.14148600000044098, 0.19241179999880842, 0.16483750000043074, 0.1914117999986047, 0.13866170000255806, 0.19045579999874462, 0.14011810000010883]","[0.05571779999809223, 0.027078099999926053, 0.05566289999842411, 0.05597219999981462, 0.028672299999016104, 0.055925000000570435, 0.02671580000242102, 0.08611580000069807, 0.0561874999984866, 0.0588075999985449, 0.08476549999977578, 0.05758100000093691, 0.05553370000052382, 0.026882300000579562, 0.056184099998063175, 0.058533100000204286, 0.14012260000163224]",13,"[0.5005191000018385, 0.1446438000020862, 0.17122329999983776, 0.11126950000107172, 0.14343219999864232, 0.1366517999995267, 0.1391336999986379, 0.14353400000254624, 0.13692270000319695, 0.1867999999994936, 0.13833200000226498, 0.13468310000098427, 0.16345089999958873]","[0.02853510000204551, 0.027479799999127863, 0.02713710000170977, 0.05909389999942505, 0.05712929999936023, 0.05545219999839901, 0.060151800000312505, 0.057548300002963515, 0.05470509999940987, 0.029627600000821985, 0.056055600001855055, 0.055905700002767844, 0.05579070000021602]",None,None,408434,001,2023-05-09_20h30.38.507,pb,2022.2.5,234.12843347810892,
30,0,30,0,11.652549500002351,11.652549500002351,11.652549500002351,11.652549500002351,11.652549500002351,11.652549500002351,18,"[0.27357430000120075, 0.24416109999947366, 0.16444500000216067, 0.1385950000003504, 0.1890903999992588, 0.1382473999983631, 0.19143070000063744, 0.13838329999998678, 0.170687400001043, 0.16236710000157473, 0.14148600000044098, 0.19241179999880842, 0.16483750000043074, 0.1914117999986047, 0.13866170000255806, 0.19045579999874462, 0.14011810000010883, 0.1927055999985896]","[0.05571779999809223, 0.027078099999926053, 0.05566289999842411, 0.05597219999981462, 0.028672299999016104, 0.055925000000570435, 0.02671580000242102, 0.08611580000069807, 0.0561874999984866, 0.0588075999985449, 0.08476549999977578, 0.05758100000093691, 0.05553370000052382, 0.026882300000579562, 0.056184099998063175, 0.058533100000204286, 0.08438219999879948, 0.19270939999842085]",13,"[0.5005191000018385, 0.1446438000020862, 0.17122329999983776, 0.11126950000107172, 0.14343219999864232, 0.1366517999995267, 0.1391336999986379, 0.14353400000254624, 0.13692270000319695, 0.1867999999994936, 0.13833200000226498, 0.13468310000098427, 0.16345089999958873]","[0.02853510000204551, 0.027479799999127863, 0.02713710000170977, 0.05909389999942505, 0.05712929999936023, 0.05545219999839901, 0.060151800000312505, 0.057548300002963515, 0.05470509999940987, 0.029627600000821985, 0.056055600001855055, 0.055905700002767844, 0.05579070000021602]",None,None,408434,001,2023-05-09_20h30.38.507,pb,2022.2.5,234.12843347810892,
31,0,31,0,11.86294160000034,11.86294160000034,11.86294160000034,11.86294160000034,11.86294160000034,11.86294160000034,19,"[0.27357430000120075, 0.24416109999947366, 0.16444500000216067, 0.1385950000003504, 0.1890903999992588, 0.1382473999983631, 0.19143070000063744, 0.13838329999998678, 0.170687400001043, 0.16236710000157473, 0.14148600000044098, 0.19241179999880842, 0.16483750000043074, 0.1914117999986047, 0.13866170000255806, 0.19045579999874462, 0.14011810000010883, 0.1927055999985896, 0.16598349999912898]","[0.05571779999809223, 0.027078099999926053, 0.05566289999842411, 0.05597219999981462, 0.028672299999016104, 0.055925000000570435, 0.02671580000242102, 0.08611580000069807, 0.0561874999984866, 0.0588075999985449, 0.08476549999977578, 0.05758100000093691, 0.05553370000052382, 0.026882300000579562, 0.056184099998063175, 0.058533100000204286, 0.08438219999879948, 0.05799729999853298, 0.16598739999972167]",13,"[0.5005191000018385, 0.1446438000020862, 0.17122329999983776, 0.11126950000107172, 0.14343219999864232, 0.1366517999995267, 0.1391336999986379, 0.14353400000254624, 0.13692270000319695, 0.1867999999994936, 0.13833200000226498, 0.13468310000098427, 0.16345089999958873]","[0.02853510000204551, 0.027479799999127863, 0.02713710000170977, 0.05909389999942505, 0.05712929999936023, 0.05545219999839901, 0.060151800000312505, 0.057548300002963515, 0.05470509999940987, 0.029627600000821985, 0.056055600001855055, 0.055905700002767844, 0.05579070000021602]",None,None,408434,001,2023-05-09_20h30.38.507,pb,2022.2.5,234.12843347810892,
32,0,32,0,12.041227400000935,12.041227400000935,12.041227400000935,12.041227400000935,12.041227400000935,12.041227400000935,20,"[0.27357430000120075, 0.24416109999947366, 0.16444500000216067, 0.1385950000003504, 0.1890903999992588, 0.1382473999983631, 0.19143070000063744, 0.13838329999998678, 0.170687400001043, 0.16236710000157473, 0.14148600000044098, 0.19241179999880842, 0.16483750000043074, 0.1914117999986047, 0.13866170000255806, 0.19045579999874462, 0.14011810000010883, 0.1927055999985896, 0.16598349999912898, 0.1663602999979048]","[0.05571779999809223, 0.027078099999926053, 0.05566289999842411, 0.05597219999981462, 0.028672299999016104, 0.055925000000570435, 0.02671580000242102, 0.08611580000069807, 0.0561874999984866, 0.0588075999985449, 0.08476549999977578, 0.05758100000093691, 0.05553370000052382, 0.026882300000579562, 0.056184099998063175, 0.058533100000204286, 0.08438219999879948, 0.05799729999853298, 0.05612809999729507, 0.1663641999984975]",13,"[0.5005191000018385, 0.1446438000020862, 0.17122329999983776, 0.11126950000107172, 0.14343219999864232, 0.1366517999995267, 0.1391336999986379, 0.14353400000254624, 0.13692270000319695, 0.1867999999994936, 0.13833200000226498, 0.13468310000098427, 0.16345089999958873]","[0.02853510000204551, 0.027479799999127863, 0.02713710000170977, 0.05909389999942505, 0.05712929999936023, 0.05545219999839901, 0.060151800000312505, 0.057548300002963515, 0.05470509999940987, 0.029627600000821985, 0.056055600001855055, 0.055905700002767844, 0.05579070000021602]",None,None,408434,001,2023-05-09_20h30.38.507,pb,2022.2.5,234.12843347810892,
33,0,33,0,12.22227919999932,12.22227919999932,12.22227919999932,12.22227919999932,12.22227919999932,12.22227919999932,21,"[0.27357430000120075, 0.24416109999947366, 0.16444500000216067, 0.1385950000003504, 0.1890903999992588, 0.1382473999983631, 0.19143070000063744, 0.13838329999998678, 0.170687400001043, 0.16236710000157473, 0.14148600000044098, 0.19241179999880842, 0.16483750000043074, 0.1914117999986047, 0.13866170000255806, 0.19045579999874462, 0.14011810000010883, 0.1927055999985896, 0.16598349999912898, 0.1663602999979048, 0.1625065000007453]","[0.05571779999809223, 0.027078099999926053, 0.05566289999842411, 0.05597219999981462, 0.028672299999016104, 0.055925000000570435, 0.02671580000242102, 0.08611580000069807, 0.0561874999984866, 0.0588075999985449, 0.08476549999977578, 0.05758100000093691, 0.05553370000052382, 0.026882300000579562, 0.056184099998063175, 0.058533100000204286, 0.08438219999879948, 0.05799729999853298, 0.05612809999729507, 0.05599879999863333, 0.16251040000133798]",13,"[0.5005191000018385, 0.1446438000020862, 0.17122329999983776, 0.11126950000107172, 0.14343219999864232, 0.1366517999995267, 0.1391336999986379, 0.14353400000254624, 0.13692270000319695, 0.1867999999994936, 0.13833200000226498, 0.13468310000098427, 0.16345089999958873]","[0.02853510000204551, 0.027479799999127863, 0.02713710000170977, 0.05909389999942505, 0.05712929999936023, 0.05545219999839901, 0.060151800000312505, 0.057548300002963515, 0.05470509999940987, 0.029627600000821985, 0.056055600001855055, 0.055905700002767844, 0.05579070000021602]",None,None,408434,001,2023-05-09_20h30.38.507,pb,2022.2.5,234.12843347810892,
34,0,34,0,12.402490899999975,12.402490899999975,12.402490899999975,12.402490899999975,12.402490899999975,12.402490899999975,22,"[0.27357430000120075, 0.24416109999947366, 0.16444500000216067, 0.1385950000003504, 0.1890903999992588, 0.1382473999983631, 0.19143070000063744, 0.13838329999998678, 0.170687400001043, 0.16236710000157473, 0.14148600000044098, 0.19241179999880842, 0.16483750000043074, 0.1914117999986047, 0.13866170000255806, 0.19045579999874462, 0.14011810000010883, 0.1927055999985896, 0.16598349999912898, 0.1663602999979048, 0.1625065000007453, 0.16633080000246991]","[0.05571779999809223, 0.027078099999926053, 0.05566289999842411, 0.05597219999981462, 0.028672299999016104, 0.055925000000570435, 0.02671580000242102, 0.08611580000069807, 0.0561874999984866, 0.0588075999985449, 0.08476549999977578, 0.05758100000093691, 0.05553370000052382, 0.026882300000579562, 0.056184099998063175, 0.058533100000204286, 0.08438219999879948, 0.05799729999853298, 0.05612809999729507, 0.05599879999863333, 0.05889420000312384, 0.16633490000094753]",13,"[0.5005191000018385, 0.1446438000020862, 0.17122329999983776, 0.11126950000107172, 0.14343219999864232, 0.1366517999995267, 0.1391336999986379, 0.14353400000254624, 0.13692270000319695, 0.1867999999994936, 0.13833200000226498, 0.13468310000098427, 0.16345089999958873]","[0.02853510000204551, 0.027479799999127863, 0.02713710000170977, 0.05909389999942505, 0.05712929999936023, 0.05545219999839901, 0.060151800000312505, 0.057548300002963515, 0.05470509999940987, 0.029627600000821985, 0.056055600001855055, 0.055905700002767844, 0.05579070000021602]",None,None,408434,001,2023-05-09_20h30.38.507,pb,2022.2.5,234.12843347810892,
35,0,35,0,12.581159400000615,12.581159400000615,12.581159400000615,12.581159400000615,12.581159400000615,12.581159400000615,23,"[0.27357430000120075, 0.24416109999947366, 0.16444500000216067, 0.1385950000003504, 0.1890903999992588, 0.1382473999983631, 0.19143070000063744, 0.13838329999998678, 0.170687400001043, 0.16236710000157473, 0.14148600000044098, 0.19241179999880842, 0.16483750000043074, 0.1914117999986047, 0.13866170000255806, 0.19045579999874462, 0.14011810000010883, 0.1927055999985896, 0.16598349999912898, 0.1663602999979048, 0.1625065000007453, 0.16633080000246991, 0.19097189999956754]","[0.05571779999809223, 0.027078099999926053, 0.05566289999842411, 0.05597219999981462, 0.028672299999016104, 0.055925000000570435, 0.02671580000242102, 0.08611580000069807, 0.0561874999984866, 0.0588075999985449, 0.08476549999977578, 0.05758100000093691, 0.05553370000052382, 0.026882300000579562, 0.056184099998063175, 0.058533100000204286, 0.08438219999879948, 0.05799729999853298, 0.05612809999729507, 0.05599879999863333, 0.05889420000312384, 0.056225399999675574, 0.19097580000016023]",13,"[0.5005191000018385, 0.1446438000020862, 0.17122329999983776, 0.11126950000107172, 0.14343219999864232, 0.1366517999995267, 0.1391336999986379, 0.14353400000254624, 0.13692270000319695, 0.1867999999994936, 0.13833200000226498, 0.13468310000098427, 0.16345089999958873]","[0.02853510000204551, 0.027479799999127863, 0.02713710000170977, 0.05909389999942505, 0.05712929999936023, 0.05545219999839901, 0.060151800000312505, 0.057548300002963515, 0.05470509999940987, 0.029627600000821985, 0.056055600001855055, 0.055905700002767844, 0.05579070000021602]",None,None,408434,001,2023-05-09_20h30.38.507,pb,2022.2.5,234.12843347810892,
36,0,36,0,12.786518100001558,12.786518100001558,12.786518100001558,12.786518100001558,12.786518100001558,12.786518100001558,24,"[0.27357430000120075, 0.24416109999947366, 0.16444500000216067, 0.1385950000003504, 0.1890903999992588, 0.1382473999983631, 0.19143070000063744, 0.13838329999998678, 0.170687400001043, 0.16236710000157473, 0.14148600000044098, 0.19241179999880842, 0.16483750000043074, 0.1914117999986047, 0.13866170000255806, 0.19045579999874462, 0.14011810000010883, 0.1927055999985896, 0.16598349999912898, 0.1663602999979048, 0.1625065000007453, 0.16633080000246991, 0.19097189999956754, 0.16482489999907557]","[0.05571779999809223, 0.027078099999926053, 0.05566289999842411, 0.05597219999981462, 0.028672299999016104, 0.055925000000570435, 0.02671580000242102, 0.08611580000069807, 0.0561874999984866, 0.0588075999985449, 0.08476549999977578, 0.05758100000093691, 0.05553370000052382, 0.026882300000579562, 0.056184099998063175, 0.058533100000204286, 0.08438219999879948, 0.05799729999853298, 0.05612809999729507, 0.05599879999863333, 0.05889420000312384, 0.056225399999675574, 0.0555421999997634, 0.1648289000004297]",13,"[0.5005191000018385, 0.1446438000020862, 0.17122329999983776, 0.11126950000107172, 0.14343219999864232, 0.1366517999995267, 0.1391336999986379, 0.14353400000254624, 0.13692270000319695, 0.1867999999994936, 0.13833200000226498, 0.13468310000098427, 0.16345089999958873]","[0.02853510000204551, 0.027479799999127863, 0.02713710000170977, 0.05909389999942505, 0.05712929999936023, 0.05545219999839901, 0.060151800000312505, 0.057548300002963515, 0.05470509999940987, 0.029627600000821985, 0.056055600001855055, 0.055905700002767844, 0.05579070000021602]",None,None,408434,001,2023-05-09_20h30.38.507,pb,2022.2.5,234.12843347810892,
37,0,37,0,12.968440799999371,12.968440799999371,12.968440799999371,12.968440799999371,12.968440799999371,12.968440799999371,25,"[0.27357430000120075, 0.24416109999947366, 0.16444500000216067, 0.1385950000003504, 0.1890903999992588, 0.1382473999983631, 0.19143070000063744, 0.13838329999998678, 0.170687400001043, 0.16236710000157473, 0.14148600000044098, 0.19241179999880842, 0.16483750000043074, 0.1914117999986047, 0.13866170000255806, 0.19045579999874462, 0.14011810000010883, 0.1927055999985896, 0.16598349999912898, 0.1663602999979048, 0.1625065000007453, 0.16633080000246991, 0.19097189999956754, 0.16482489999907557, 0.19324240000059945]","[0.05571779999809223, 0.027078099999926053, 0.05566289999842411, 0.05597219999981462, 0.028672299999016104, 0.055925000000570435, 0.02671580000242102, 0.08611580000069807, 0.0561874999984866, 0.0588075999985449, 0.08476549999977578, 0.05758100000093691, 0.05553370000052382, 0.026882300000579562, 0.056184099998063175, 0.058533100000204286, 0.08438219999879948, 0.05799729999853298, 0.05612809999729507, 0.05599879999863333, 0.05889420000312384, 0.056225399999675574, 0.0555421999997634, 0.057096100001217565, 0.1932464000019536]",13,"[0.5005191000018385, 0.1446438000020862, 0.17122329999983776, 0.11126950000107172, 0.14343219999864232, 0.1366517999995267, 0.1391336999986379, 0.14353400000254624, 0.13692270000319695, 0.1867999999994936, 0.13833200000226498, 0.13468310000098427, 0.16345089999958873]","[0.02853510000204551, 0.027479799999127863, 0.02713710000170977, 0.05909389999942505, 0.05712929999936023, 0.05545219999839901, 0.060151800000312505, 0.057548300002963515, 0.05470509999940987, 0.029627600000821985, 0.056055600001855055, 0.055905700002767844, 0.05579070000021602]",None,None,408434,001,2023-05-09_20h30.38.507,pb,2022.2.5,234.12843347810892,
38,0,38,0,13.175127500002418,13.175127500002418,13.175127500002418,13.175127500002418,13.175127500002418,13.175127500002418,26,"[0.27357430000120075, 0.24416109999947366, 0.16444500000216067, 0.1385950000003504, 0.1890903999992588, 0.1382473999983631, 0.19143070000063744, 0.13838329999998678, 0.170687400001043, 0.16236710000157473, 0.14148600000044098, 0.19241179999880842, 0.16483750000043074, 0.1914117999986047, 0.13866170000255806, 0.19045579999874462, 0.14011810000010883, 0.1927055999985896, 0.16598349999912898, 0.1663602999979048, 0.1625065000007453, 0.16633080000246991, 0.19097189999956754, 0.16482489999907557, 0.19324240000059945, 0.13976929999989807]","[0.05571779999809223, 0.027078099999926053, 0.05566289999842411, 0.05597219999981462, 0.028672299999016104, 0.055925000000570435, 0.02671580000242102, 0.08611580000069807, 0.0561874999984866, 0.0588075999985449, 0.08476549999977578, 0.05758100000093691, 0.05553370000052382, 0.026882300000579562, 0.056184099998063175, 0.058533100000204286, 0.08438219999879948, 0.05799729999853298, 0.05612809999729507, 0.05599879999863333, 0.05889420000312384, 0.056225399999675574, 0.0555421999997634, 0.057096100001217565, 0.05698139999731211, 0.13977359999989858]",13,"[0.5005191000018385, 0.1446438000020862, 0.17122329999983776, 0.11126950000107172, 0.14343219999864232, 0.1366517999995267, 0.1391336999986379, 0.14353400000254624, 0.13692270000319695, 0.1867999999994936, 0.13833200000226498, 0.13468310000098427, 0.16345089999958873]","[0.02853510000204551, 0.027479799999127863, 0.02713710000170977, 0.05909389999942505, 0.05712929999936023, 0.05545219999839901, 0.060151800000312505, 0.057548300002963515, 0.05470509999940987, 0.029627600000821985, 0.056055600001855055, 0.055905700002767844, 0.05579070000021602]",None,None,408434,001,2023-05-09_20h30.38.507,pb,2022.2.5,234.12843347810892,
,,,,13.331404500000644,13.331404500000644,13.331404500000644,13.331404500000644,13.331404500000644,13.331404500000644,,,,,,,,,,,,,,,
