trials.thisRepN,trials.thisTrialN,trials.thisN,trials.thisIndex,header.started,plus.started,minus.started,win_lose.started,plus.numClicks,plus.timesOn,plus.timesOff,minus.numClicks,minus.timesOn,minus.timesOff,green.response,red.response,participant,session,date,expName,psychopyVersion,frameRate,
0,0,0,0,5.781262299999071,5.781262299999071,5.781262299999071,5.781262299999071,0,,,1,[3.3148782000007486],[3.314881400001468],None,None,836472,001,2023-05-05_16h53.38.109,pb,2022.2.5,240.0389823306539,
1,0,1,0,9.116659599998457,9.116659599998457,9.116659599998457,9.116659599998457,0,,,2,"[3.3148782000007486, 0.457585600001039]","[8.490000072924886e-05, 0.45758870000099705]",None,None,836472,001,2023-05-05_16h53.38.109,pb,2022.2.5,240.0389823306539,
2,0,2,0,9.589730199999394,9.589730199999394,9.589730199999394,9.589730199999394,0,,,3,"[3.3148782000007486, 0.457585600001039, 0.14142639999954554]","[8.490000072924886e-05, 9.440000030735973e-05, 0.14142939999874216]",None,None,836472,001,2023-05-05_16h53.38.109,pb,2022.2.5,240.0389823306539,
3,0,3,0,9.73178899999948,9.73178899999948,9.73178899999948,9.73178899999948,0,,,4,"[3.3148782000007486, 0.457585600001039, 0.14142639999954554, 0.1746194999996078]","[8.490000072924886e-05, 9.440000030735973e-05, 0.03119909999986703, 0.17462249999880441]",None,None,836472,001,2023-05-05_16h53.38.109,pb,2022.2.5,240.0389823306539,
4,0,4,0,9.937303299999257,9.937303299999257,9.937303299999257,9.937303299999257,0,,,5,"[3.3148782000007486, 0.457585600001039, 0.14142639999954554, 0.1746194999996078, 0.20525329999873065]","[8.490000072924886e-05, 9.440000030735973e-05, 0.03119909999986703, 0.04626060000009602, 0.20525629999974626]",None,None,836472,001,2023-05-05_16h53.38.109,pb,2022.2.5,240.0389823306539,
5,0,5,0,10.15938769999957,10.15938769999957,10.15938769999957,10.15938769999957,0,,,6,"[3.3148782000007486, 0.457585600001039, 0.14142639999954554, 0.1746194999996078, 0.20525329999873065, 1.2017304999990301]","[8.490000072924886e-05, 9.440000030735973e-05, 0.03119909999986703, 0.04626060000009602, 8.630000047560316e-05, 1.2017335999989882]",None,None,836472,001,2023-05-05_16h53.38.109,pb,2022.2.5,240.0389823306539,
6,0,6,0,11.378459099998508,11.378459099998508,11.378459099998508,11.378459099998508,0,,,7,"[3.3148782000007486, 0.457585600001039, 0.14142639999954554, 0.1746194999996078, 0.20525329999873065, 1.2017304999990301, 0.12588099999993574]","[8.490000072924886e-05, 9.440000030735973e-05, 0.03119909999986703, 0.04626060000009602, 8.630000047560316e-05, 8.510000043315813e-05, 0.12588440000035916]",None,None,836472,001,2023-05-05_16h53.38.109,pb,2022.2.5,240.0389823306539,
7,0,7,0,11.519378299999516,11.519378299999516,11.519378299999516,11.519378299999516,0,,,8,"[3.3148782000007486, 0.457585600001039, 0.14142639999954554, 0.1746194999996078, 0.20525329999873065, 1.2017304999990301, 0.12588099999993574, 0.15804539999953704]","[8.490000072924886e-05, 9.440000030735973e-05, 0.03119909999986703, 0.04626060000009602, 8.630000047560316e-05, 8.510000043315813e-05, 0.04687059999923804, 0.15804860000025656]",None,None,836472,001,2023-05-05_16h53.38.109,pb,2022.2.5,240.0389823306539,
8,0,8,0,11.694263499999579,11.694263499999579,11.694263499999579,11.694263499999579,1,[0.7756971999988309],[0.7757001999998465],8,"[3.3148782000007486, 0.457585600001039, 0.14142639999954554, 0.1746194999996078, 0.20525329999873065, 1.2017304999990301, 0.12588099999993574, 0.15804539999953704]","[8.490000072924886e-05, 9.440000030735973e-05, 0.03119909999986703, 0.04626060000009602, 8.630000047560316e-05, 8.510000043315813e-05, 0.04687059999923804, 0.047710899998492096]",None,None,836472,001,2023-05-05_16h53.38.109,pb,2022.2.5,240.0389823306539,
9,0,9,0,12.485052899999573,12.485052899999573,12.485052899999573,12.485052899999573,2,"[0.7756971999988309, 0.19151419999980135]","[0.0477867999998125, 0.19151729999975942]",8,"[3.3148782000007486, 0.457585600001039, 0.14142639999954554, 0.1746194999996078, 0.20525329999873065, 1.2017304999990301, 0.12588099999993574, 0.15804539999953704]","[8.490000072924886e-05, 9.440000030735973e-05, 0.03119909999986703, 0.04626060000009602, 8.630000047560316e-05, 8.510000043315813e-05, 0.04687059999923804, 0.047710899998492096]",None,None,836472,001,2023-05-05_16h53.38.109,pb,2022.2.5,240.0389823306539,
10,0,10,0,12.692306400000234,12.692306400000234,12.692306400000234,12.692306400000234,3,"[0.7756971999988309, 0.19151419999980135, 0.12733580000167422]","[0.0477867999998125, 0.00012860000060754828, 0.12733880000087083]",8,"[3.3148782000007486, 0.457585600001039, 0.14142639999954554, 0.1746194999996078, 0.20525329999873065, 1.2017304999990301, 0.12588099999993574, 0.15804539999953704]","[8.490000072924886e-05, 9.440000030735973e-05, 0.03119909999986703, 0.04626060000009602, 8.630000047560316e-05, 8.510000043315813e-05, 0.04687059999923804, 0.047710899998492096]",None,None,836472,001,2023-05-05_16h53.38.109,pb,2022.2.5,240.0389823306539,
11,0,11,0,12.835666599999968,12.835666599999968,12.835666599999968,12.835666599999968,4,"[0.7756971999988309, 0.19151419999980135, 0.12733580000167422, 0.9826281999994535]","[0.0477867999998125, 0.00012860000060754828, 0.00012599999899975955, 0.9826312999994116]",8,"[3.3148782000007486, 0.457585600001039, 0.14142639999954554, 0.1746194999996078, 0.20525329999873065, 1.2017304999990301, 0.12588099999993574, 0.15804539999953704]","[8.490000072924886e-05, 9.440000030735973e-05, 0.03119909999986703, 0.04626060000009602, 8.630000047560316e-05, 8.510000043315813e-05, 0.04687059999923804, 0.047710899998492096]",None,None,836472,001,2023-05-05_16h53.38.109,pb,2022.2.5,240.0389823306539,
12,0,12,0,13.831750100000136,13.831750100000136,13.831750100000136,13.831750100000136,5,"[0.7756971999988309, 0.19151419999980135, 0.12733580000167422, 0.9826281999994535, 0.8844864000002417]","[0.0477867999998125, 0.00012860000060754828, 0.00012599999899975955, 0.00011330000052112155, 0.8844898999996076]",8,"[3.3148782000007486, 0.457585600001039, 0.14142639999954554, 0.1746194999996078, 0.20525329999873065, 1.2017304999990301, 0.12588099999993574, 0.15804539999953704]","[8.490000072924886e-05, 9.440000030735973e-05, 0.03119909999986703, 0.04626060000009602, 8.630000047560316e-05, 8.510000043315813e-05, 0.04687059999923804, 0.047710899998492096]",None,None,836472,001,2023-05-05_16h53.38.109,pb,2022.2.5,240.0389823306539,
13,0,13,0,14.717621899999358,14.717621899999358,14.717621899999358,14.717621899999358,6,"[0.7756971999988309, 0.19151419999980135, 0.12733580000167422, 0.9826281999994535, 0.8844864000002417, 0.1756574000010005]","[0.0477867999998125, 0.00012860000060754828, 0.00012599999899975955, 0.00011330000052112155, 0.03378370000064024, 0.17566030000125465]",8,"[3.3148782000007486, 0.457585600001039, 0.14142639999954554, 0.1746194999996078, 0.20525329999873065, 1.2017304999990301, 0.12588099999993574, 0.15804539999953704]","[8.490000072924886e-05, 9.440000030735973e-05, 0.03119909999986703, 0.04626060000009602, 8.630000047560316e-05, 8.510000043315813e-05, 0.04687059999923804, 0.047710899998492096]",None,None,836472,001,2023-05-05_16h53.38.109,pb,2022.2.5,240.0389823306539,
14,0,14,0,14.907589899999948,14.907589899999948,14.907589899999948,14.907589899999948,7,"[0.7756971999988309, 0.19151419999980135, 0.12733580000167422, 0.9826281999994535, 0.8844864000002417, 0.1756574000010005, 0.14501040000141074]","[0.0477867999998125, 0.00012860000060754828, 0.00012599999899975955, 0.00011330000052112155, 0.03378370000064024, 0.03323439999985567, 0.14501340000060736]",8,"[3.3148782000007486, 0.457585600001039, 0.14142639999954554, 0.1746194999996078, 0.20525329999873065, 1.2017304999990301, 0.12588099999993574, 0.15804539999953704]","[8.490000072924886e-05, 9.440000030735973e-05, 0.03119909999986703, 0.04626060000009602, 8.630000047560316e-05, 8.510000043315813e-05, 0.04687059999923804, 0.047710899998492096]",None,None,836472,001,2023-05-05_16h53.38.109,pb,2022.2.5,240.0389823306539,
15,0,15,0,15.06661829999939,15.06661829999939,15.06661829999939,15.06661829999939,8,"[0.7756971999988309, 0.19151419999980135, 0.12733580000167422, 0.9826281999994535, 0.8844864000002417, 0.1756574000010005, 0.14501040000141074, 0.14293069999985164]","[0.0477867999998125, 0.00012860000060754828, 0.00012599999899975955, 0.00011330000052112155, 0.03378370000064024, 0.03323439999985567, 0.03210659999967902, 0.1429336000001058]",8,"[3.3148782000007486, 0.457585600001039, 0.14142639999954554, 0.1746194999996078, 0.20525329999873065, 1.2017304999990301, 0.12588099999993574, 0.15804539999953704]","[8.490000072924886e-05, 9.440000030735973e-05, 0.03119909999986703, 0.04626060000009602, 8.630000047560316e-05, 8.510000043315813e-05, 0.04687059999923804, 0.047710899998492096]",None,None,836472,001,2023-05-05_16h53.38.109,pb,2022.2.5,240.0389823306539,
16,0,16,0,15.22451269999874,15.22451269999874,15.22451269999874,15.22451269999874,9,"[0.7756971999988309, 0.19151419999980135, 0.12733580000167422, 0.9826281999994535, 0.8844864000002417, 0.1756574000010005, 0.14501040000141074, 0.14293069999985164, 0.19130589999986114]","[0.0477867999998125, 0.00012860000060754828, 0.00012599999899975955, 0.00011330000052112155, 0.03378370000064024, 0.03323439999985567, 0.03210659999967902, 0.06413379999867175, 0.19130909999876167]",8,"[3.3148782000007486, 0.457585600001039, 0.14142639999954554, 0.1746194999996078, 0.20525329999873065, 1.2017304999990301, 0.12588099999993574, 0.15804539999953704]","[8.490000072924886e-05, 9.440000030735973e-05, 0.03119909999986703, 0.04626060000009602, 8.630000047560316e-05, 8.510000043315813e-05, 0.04687059999923804, 0.047710899998492096]",None,None,836472,001,2023-05-05_16h53.38.109,pb,2022.2.5,240.0389823306539,
17,0,17,0,15.446575999998458,15.446575999998458,15.446575999998458,15.446575999998458,10,"[0.7756971999988309, 0.19151419999980135, 0.12733580000167422, 0.9826281999994535, 0.8844864000002417, 0.1756574000010005, 0.14501040000141074, 0.14293069999985164, 0.19130589999986114, 0.15652640000007523]","[0.0477867999998125, 0.00012860000060754828, 0.00012599999899975955, 0.00011330000052112155, 0.03378370000064024, 0.03323439999985567, 0.03210659999967902, 0.06413379999867175, 0.04683079999995243, 0.15652930000032939]",8,"[3.3148782000007486, 0.457585600001039, 0.14142639999954554, 0.1746194999996078, 0.20525329999873065, 1.2017304999990301, 0.12588099999993574, 0.15804539999953704]","[8.490000072924886e-05, 9.440000030735973e-05, 0.03119909999986703, 0.04626060000009602, 8.630000047560316e-05, 8.510000043315813e-05, 0.04687059999923804, 0.047710899998492096]",None,None,836472,001,2023-05-05_16h53.38.109,pb,2022.2.5,240.0389823306539,
18,0,18,0,15.60478559999865,15.60478559999865,15.60478559999865,15.60478559999865,11,"[0.7756971999988309, 0.19151419999980135, 0.12733580000167422, 0.9826281999994535, 0.8844864000002417, 0.1756574000010005, 0.14501040000141074, 0.14293069999985164, 0.19130589999986114, 0.15652640000007523, 0.17555499999980384]","[0.0477867999998125, 0.00012860000060754828, 0.00012599999899975955, 0.00011330000052112155, 0.03378370000064024, 0.03323439999985567, 0.03210659999967902, 0.06413379999867175, 0.04683079999995243, 0.033409399999072775, 0.175557900000058]",8,"[3.3148782000007486, 0.457585600001039, 0.14142639999954554, 0.1746194999996078, 0.20525329999873065, 1.2017304999990301, 0.12588099999993574, 0.15804539999953704]","[8.490000072924886e-05, 9.440000030735973e-05, 0.03119909999986703, 0.04626060000009602, 8.630000047560316e-05, 8.510000043315813e-05, 0.04687059999923804, 0.047710899998492096]",None,None,836472,001,2023-05-05_16h53.38.109,pb,2022.2.5,240.0389823306539,
19,0,19,0,15.809373899999628,15.809373899999628,15.809373899999628,15.809373899999628,12,"[0.7756971999988309, 0.19151419999980135, 0.12733580000167422, 0.9826281999994535, 0.8844864000002417, 0.1756574000010005, 0.14501040000141074, 0.14293069999985164, 0.19130589999986114, 0.15652640000007523, 0.17555499999980384, 0.1262841000007029]","[0.0477867999998125, 0.00012860000060754828, 0.00012599999899975955, 0.00011330000052112155, 0.03378370000064024, 0.03323439999985567, 0.03210659999967902, 0.06413379999867175, 0.04683079999995243, 0.033409399999072775, 0.00013100000069243833, 0.1262870999998995]",8,"[3.3148782000007486, 0.457585600001039, 0.14142639999954554, 0.1746194999996078, 0.20525329999873065, 1.2017304999990301, 0.12588099999993574, 0.15804539999953704]","[8.490000072924886e-05, 9.440000030735973e-05, 0.03119909999986703, 0.04626060000009602, 8.630000047560316e-05, 8.510000043315813e-05, 0.04687059999923804, 0.047710899998492096]",None,None,836472,001,2023-05-05_16h53.38.109,pb,2022.2.5,240.0389823306539,
20,0,20,0,15.95211129999916,15.95211129999916,15.95211129999916,15.95211129999916,13,"[0.7756971999988309, 0.19151419999980135, 0.12733580000167422, 0.9826281999994535, 0.8844864000002417, 0.1756574000010005, 0.14501040000141074, 0.14293069999985164, 0.19130589999986114, 0.15652640000007523, 0.17555499999980384, 0.1262841000007029, 0.12698859999909473]","[0.0477867999998125, 0.00012860000060754828, 0.00012599999899975955, 0.00011330000052112155, 0.03378370000064024, 0.03323439999985567, 0.03210659999967902, 0.06413379999867175, 0.04683079999995243, 0.033409399999072775, 0.00013100000069243833, 0.04906769999979588, 0.12699160000011034]",8,"[3.3148782000007486, 0.457585600001039, 0.14142639999954554, 0.1746194999996078, 0.20525329999873065, 1.2017304999990301, 0.12588099999993574, 0.15804539999953704]","[8.490000072924886e-05, 9.440000030735973e-05, 0.03119909999986703, 0.04626060000009602, 8.630000047560316e-05, 8.510000043315813e-05, 0.04687059999923804, 0.047710899998492096]",None,None,836472,001,2023-05-05_16h53.38.109,pb,2022.2.5,240.0389823306539,
21,0,21,0,16.092987199999698,16.092987199999698,16.092987199999698,16.092987199999698,13,"[0.7756971999988309, 0.19151419999980135, 0.12733580000167422, 0.9826281999994535, 0.8844864000002417, 0.1756574000010005, 0.14501040000141074, 0.14293069999985164, 0.19130589999986114, 0.15652640000007523, 0.17555499999980384, 0.1262841000007029, 0.12698859999909473]","[0.0477867999998125, 0.00012860000060754828, 0.00012599999899975955, 0.00011330000052112155, 0.03378370000064024, 0.03323439999985567, 0.03210659999967902, 0.06413379999867175, 0.04683079999995243, 0.033409399999072775, 0.00013100000069243833, 0.04906769999979588, 0.04781050000019604]",9,"[3.3148782000007486, 0.457585600001039, 0.14142639999954554, 0.1746194999996078, 0.20525329999873065, 1.2017304999990301, 0.12588099999993574, 0.15804539999953704, 0.349606899999344]","[8.490000072924886e-05, 9.440000030735973e-05, 0.03119909999986703, 0.04626060000009602, 8.630000047560316e-05, 8.510000043315813e-05, 0.04687059999923804, 0.047710899998492096, 0.34961010000006354]",None,None,836472,001,2023-05-05_16h53.38.109,pb,2022.2.5,240.0389823306539,
22,0,22,0,16.457704599999488,16.457704599999488,16.457704599999488,16.457704599999488,13,"[0.7756971999988309, 0.19151419999980135, 0.12733580000167422, 0.9826281999994535, 0.8844864000002417, 0.1756574000010005, 0.14501040000141074, 0.14293069999985164, 0.19130589999986114, 0.15652640000007523, 0.17555499999980384, 0.1262841000007029, 0.12698859999909473]","[0.0477867999998125, 0.00012860000060754828, 0.00012599999899975955, 0.00011330000052112155, 0.03378370000064024, 0.03323439999985567, 0.03210659999967902, 0.06413379999867175, 0.04683079999995243, 0.033409399999072775, 0.00013100000069243833, 0.04906769999979588, 0.04781050000019604]",10,"[3.3148782000007486, 0.457585600001039, 0.14142639999954554, 0.1746194999996078, 0.20525329999873065, 1.2017304999990301, 0.12588099999993574, 0.15804539999953704, 0.349606899999344, 0.15888690000065253]","[8.490000072924886e-05, 9.440000030735973e-05, 0.03119909999986703, 0.04626060000009602, 8.630000047560316e-05, 8.510000043315813e-05, 0.04687059999923804, 0.047710899998492096, 0.04789420000088285, 0.1588900000006106]",None,None,836472,001,2023-05-05_16h53.38.109,pb,2022.2.5,240.0389823306539,
23,0,23,0,16.63203710000016,16.63203710000016,16.63203710000016,16.63203710000016,13,"[0.7756971999988309, 0.19151419999980135, 0.12733580000167422, 0.9826281999994535, 0.8844864000002417, 0.1756574000010005, 0.14501040000141074, 0.14293069999985164, 0.19130589999986114, 0.15652640000007523, 0.17555499999980384, 0.1262841000007029, 0.12698859999909473]","[0.0477867999998125, 0.00012860000060754828, 0.00012599999899975955, 0.00011330000052112155, 0.03378370000064024, 0.03323439999985567, 0.03210659999967902, 0.06413379999867175, 0.04683079999995243, 0.033409399999072775, 0.00013100000069243833, 0.04906769999979588, 0.04781050000019604]",11,"[3.3148782000007486, 0.457585600001039, 0.14142639999954554, 0.1746194999996078, 0.20525329999873065, 1.2017304999990301, 0.12588099999993574, 0.15804539999953704, 0.349606899999344, 0.15888690000065253, 0.1586235000013403]","[8.490000072924886e-05, 9.440000030735973e-05, 0.03119909999986703, 0.04626060000009602, 8.630000047560316e-05, 8.510000043315813e-05, 0.04687059999923804, 0.047710899998492096, 0.04789420000088285, 0.048552800000834395, 0.1586265000005369]",None,None,836472,001,2023-05-05_16h53.38.109,pb,2022.2.5,240.0389823306539,
24,0,24,0,16.790146999999706,16.790146999999706,16.790146999999706,16.790146999999706,13,"[0.7756971999988309, 0.19151419999980135, 0.12733580000167422, 0.9826281999994535, 0.8844864000002417, 0.1756574000010005, 0.14501040000141074, 0.14293069999985164, 0.19130589999986114, 0.15652640000007523, 0.17555499999980384, 0.1262841000007029, 0.12698859999909473]","[0.0477867999998125, 0.00012860000060754828, 0.00012599999899975955, 0.00011330000052112155, 0.03378370000064024, 0.03323439999985567, 0.03210659999967902, 0.06413379999867175, 0.04683079999995243, 0.033409399999072775, 0.00013100000069243833, 0.04906769999979588, 0.04781050000019604]",12,"[3.3148782000007486, 0.457585600001039, 0.14142639999954554, 0.1746194999996078, 0.20525329999873065, 1.2017304999990301, 0.12588099999993574, 0.15804539999953704, 0.349606899999344, 0.15888690000065253, 0.1586235000013403, 0.14409909999994852]","[8.490000072924886e-05, 9.440000030735973e-05, 0.03119909999986703, 0.04626060000009602, 8.630000047560316e-05, 8.510000043315813e-05, 0.04687059999923804, 0.047710899998492096, 0.04789420000088285, 0.048552800000834395, 0.03299710000101186, 0.1441021999999066]",None,None,836472,001,2023-05-05_16h53.38.109,pb,2022.2.5,240.0389823306539,
25,0,25,0,16.964322899999388,16.964322899999388,16.964322899999388,16.964322899999388,14,"[0.7756971999988309, 0.19151419999980135, 0.12733580000167422, 0.9826281999994535, 0.8844864000002417, 0.1756574000010005, 0.14501040000141074, 0.14293069999985164, 0.19130589999986114, 0.15652640000007523, 0.17555499999980384, 0.1262841000007029, 0.12698859999909473, 0.2689000999998825]","[0.0477867999998125, 0.00012860000060754828, 0.00012599999899975955, 0.00011330000052112155, 0.03378370000064024, 0.03323439999985567, 0.03210659999967902, 0.06413379999867175, 0.04683079999995243, 0.033409399999072775, 0.00013100000069243833, 0.04906769999979588, 0.04781050000019604, 0.268908799998826]",12,"[3.3148782000007486, 0.457585600001039, 0.14142639999954554, 0.1746194999996078, 0.20525329999873065, 1.2017304999990301, 0.12588099999993574, 0.15804539999953704, 0.349606899999344, 0.15888690000065253, 0.1586235000013403, 0.14409909999994852]","[8.490000072924886e-05, 9.440000030735973e-05, 0.03119909999986703, 0.04626060000009602, 8.630000047560316e-05, 8.510000043315813e-05, 0.04687059999923804, 0.047710899998492096, 0.04789420000088285, 0.048552800000834395, 0.03299710000101186, 0.04816219999884197]",None,None,836472,001,2023-05-05_16h53.38.109,pb,2022.2.5,240.0389823306539,
26,0,26,0,17.233432699998957,17.233432699998957,17.233432699998957,17.233432699998957,15,"[0.7756971999988309, 0.19151419999980135, 0.12733580000167422, 0.9826281999994535, 0.8844864000002417, 0.1756574000010005, 0.14501040000141074, 0.14293069999985164, 0.19130589999986114, 0.15652640000007523, 0.17555499999980384, 0.1262841000007029, 0.12698859999909473, 0.2689000999998825, 0.14418140000088897]","[0.0477867999998125, 0.00012860000060754828, 0.00012599999899975955, 0.00011330000052112155, 0.03378370000064024, 0.03323439999985567, 0.03210659999967902, 0.06413379999867175, 0.04683079999995243, 0.033409399999072775, 0.00013100000069243833, 0.04906769999979588, 0.04781050000019604, 0.03296730000147363, 0.14418470000055095]",12,"[3.3148782000007486, 0.457585600001039, 0.14142639999954554, 0.1746194999996078, 0.20525329999873065, 1.2017304999990301, 0.12588099999993574, 0.15804539999953704, 0.349606899999344, 0.15888690000065253, 0.1586235000013403, 0.14409909999994852]","[8.490000072924886e-05, 9.440000030735973e-05, 0.03119909999986703, 0.04626060000009602, 8.630000047560316e-05, 8.510000043315813e-05, 0.04687059999923804, 0.047710899998492096, 0.04789420000088285, 0.048552800000834395, 0.03299710000101186, 0.04816219999884197]",None,None,836472,001,2023-05-05_16h53.38.109,pb,2022.2.5,240.0389823306539,
27,0,27,0,17.407200899999225,17.407200899999225,17.407200899999225,17.407200899999225,15,"[0.7756971999988309, 0.19151419999980135, 0.12733580000167422, 0.9826281999994535, 0.8844864000002417, 0.1756574000010005, 0.14501040000141074, 0.14293069999985164, 0.19130589999986114, 0.15652640000007523, 0.17555499999980384, 0.1262841000007029, 0.12698859999909473, 0.2689000999998825, 0.14418140000088897]","[0.0477867999998125, 0.00012860000060754828, 0.00012599999899975955, 0.00011330000052112155, 0.03378370000064024, 0.03323439999985567, 0.03210659999967902, 0.06413379999867175, 0.04683079999995243, 0.033409399999072775, 0.00013100000069243833, 0.04906769999979588, 0.04781050000019604, 0.03296730000147363, 0.0001346000008197734]",13,"[3.3148782000007486, 0.457585600001039, 0.14142639999954554, 0.1746194999996078, 0.20525329999873065, 1.2017304999990301, 0.12588099999993574, 0.15804539999953704, 0.349606899999344, 0.15888690000065253, 0.1586235000013403, 0.14409909999994852, 0.2068330000001879]","[8.490000072924886e-05, 9.440000030735973e-05, 0.03119909999986703, 0.04626060000009602, 8.630000047560316e-05, 8.510000043315813e-05, 0.04687059999923804, 0.047710899998492096, 0.04789420000088285, 0.048552800000834395, 0.03299710000101186, 0.04816219999884197, 0.20683610000014596]",None,None,836472,001,2023-05-05_16h53.38.109,pb,2022.2.5,240.0389823306539,
28,0,28,0,17.62800889999926,17.62800889999926,17.62800889999926,17.62800889999926,16,"[0.7756971999988309, 0.19151419999980135, 0.12733580000167422, 0.9826281999994535, 0.8844864000002417, 0.1756574000010005, 0.14501040000141074, 0.14293069999985164, 0.19130589999986114, 0.15652640000007523, 0.17555499999980384, 0.1262841000007029, 0.12698859999909473, 0.2689000999998825, 0.14418140000088897, 0.21995379999862053]","[0.0477867999998125, 0.00012860000060754828, 0.00012599999899975955, 0.00011330000052112155, 0.03378370000064024, 0.03323439999985567, 0.03210659999967902, 0.06413379999867175, 0.04683079999995243, 0.033409399999072775, 0.00013100000069243833, 0.04906769999979588, 0.04781050000019604, 0.03296730000147363, 0.0001346000008197734, 0.21995669999887468]",13,"[3.3148782000007486, 0.457585600001039, 0.14142639999954554, 0.1746194999996078, 0.20525329999873065, 1.2017304999990301, 0.12588099999993574, 0.15804539999953704, 0.349606899999344, 0.15888690000065253, 0.1586235000013403, 0.14409909999994852, 0.2068330000001879]","[8.490000072924886e-05, 9.440000030735973e-05, 0.03119909999986703, 0.04626060000009602, 8.630000047560316e-05, 8.510000043315813e-05, 0.04687059999923804, 0.047710899998492096, 0.04789420000088285, 0.048552800000834395, 0.03299710000101186, 0.04816219999884197, 0.0463675000009971]",None,None,836472,001,2023-05-05_16h53.38.109,pb,2022.2.5,240.0389823306539,
29,0,29,0,17.85024379999959,17.85024379999959,17.85024379999959,17.85024379999959,16,"[0.7756971999988309, 0.19151419999980135, 0.12733580000167422, 0.9826281999994535, 0.8844864000002417, 0.1756574000010005, 0.14501040000141074, 0.14293069999985164, 0.19130589999986114, 0.15652640000007523, 0.17555499999980384, 0.1262841000007029, 0.12698859999909473, 0.2689000999998825, 0.14418140000088897, 0.21995379999862053]","[0.0477867999998125, 0.00012860000060754828, 0.00012599999899975955, 0.00011330000052112155, 0.03378370000064024, 0.03323439999985567, 0.03210659999967902, 0.06413379999867175, 0.04683079999995243, 0.033409399999072775, 0.00013100000069243833, 0.04906769999979588, 0.04781050000019604, 0.03296730000147363, 0.0001346000008197734, 0.03365520000079414]",14,"[3.3148782000007486, 0.457585600001039, 0.14142639999954554, 0.1746194999996078, 0.20525329999873065, 1.2017304999990301, 0.12588099999993574, 0.15804539999953704, 0.349606899999344, 0.15888690000065253, 0.1586235000013403, 0.14409909999994852, 0.2068330000001879, 0.22369979999893985]","[8.490000072924886e-05, 9.440000030735973e-05, 0.03119909999986703, 0.04626060000009602, 8.630000047560316e-05, 8.510000043315813e-05, 0.04687059999923804, 0.047710899998492096, 0.04789420000088285, 0.048552800000834395, 0.03299710000101186, 0.04816219999884197, 0.0463675000009971, 0.22370289999889792]",None,None,836472,001,2023-05-05_16h53.38.109,pb,2022.2.5,240.0389823306539,
30,0,30,0,18.103389299998526,18.103389299998526,18.103389299998526,18.103389299998526,17,"[0.7756971999988309, 0.19151419999980135, 0.12733580000167422, 0.9826281999994535, 0.8844864000002417, 0.1756574000010005, 0.14501040000141074, 0.14293069999985164, 0.19130589999986114, 0.15652640000007523, 0.17555499999980384, 0.1262841000007029, 0.12698859999909473, 0.2689000999998825, 0.14418140000088897, 0.21995379999862053, 0.22391919999972743]","[0.0477867999998125, 0.00012860000060754828, 0.00012599999899975955, 0.00011330000052112155, 0.03378370000064024, 0.03323439999985567, 0.03210659999967902, 0.06413379999867175, 0.04683079999995243, 0.033409399999072775, 0.00013100000069243833, 0.04906769999979588, 0.04781050000019604, 0.03296730000147363, 0.0001346000008197734, 0.03365520000079414, 0.2239222999996855]",14,"[3.3148782000007486, 0.457585600001039, 0.14142639999954554, 0.1746194999996078, 0.20525329999873065, 1.2017304999990301, 0.12588099999993574, 0.15804539999953704, 0.349606899999344, 0.15888690000065253, 0.1586235000013403, 0.14409909999994852, 0.2068330000001879, 0.22369979999893985]","[8.490000072924886e-05, 9.440000030735973e-05, 0.03119909999986703, 0.04626060000009602, 8.630000047560316e-05, 8.510000043315813e-05, 0.04687059999923804, 0.047710899998492096, 0.04789420000088285, 0.048552800000834395, 0.03299710000101186, 0.04816219999884197, 0.0463675000009971, 0.0481619000001956]",None,None,836472,001,2023-05-05_16h53.38.109,pb,2022.2.5,240.0389823306539,
31,0,31,0,18.341644999998607,18.341644999998607,18.341644999998607,18.341644999998607,17,"[0.7756971999988309, 0.19151419999980135, 0.12733580000167422, 0.9826281999994535, 0.8844864000002417, 0.1756574000010005, 0.14501040000141074, 0.14293069999985164, 0.19130589999986114, 0.15652640000007523, 0.17555499999980384, 0.1262841000007029, 0.12698859999909473, 0.2689000999998825, 0.14418140000088897, 0.21995379999862053, 0.22391919999972743]","[0.0477867999998125, 0.00012860000060754828, 0.00012599999899975955, 0.00011330000052112155, 0.03378370000064024, 0.03323439999985567, 0.03210659999967902, 0.06413379999867175, 0.04683079999995243, 0.033409399999072775, 0.00013100000069243833, 0.04906769999979588, 0.04781050000019604, 0.03296730000147363, 0.0001346000008197734, 0.03365520000079414, 0.04716730000109237]",15,"[3.3148782000007486, 0.457585600001039, 0.14142639999954554, 0.1746194999996078, 0.20525329999873065, 1.2017304999990301, 0.12588099999993574, 0.15804539999953704, 0.349606899999344, 0.15888690000065253, 0.1586235000013403, 0.14409909999994852, 0.2068330000001879, 0.22369979999893985, 0.23716500000045926]","[8.490000072924886e-05, 9.440000030735973e-05, 0.03119909999986703, 0.04626060000009602, 8.630000047560316e-05, 8.510000043315813e-05, 0.04687059999923804, 0.047710899998492096, 0.04789420000088285, 0.048552800000834395, 0.03299710000101186, 0.04816219999884197, 0.0463675000009971, 0.0481619000001956, 0.23716840000088268]",None,None,836472,001,2023-05-05_16h53.38.109,pb,2022.2.5,240.0389823306539,
32,0,32,0,18.594232999999804,18.594232999999804,18.594232999999804,18.594232999999804,18,"[0.7756971999988309, 0.19151419999980135, 0.12733580000167422, 0.9826281999994535, 0.8844864000002417, 0.1756574000010005, 0.14501040000141074, 0.14293069999985164, 0.19130589999986114, 0.15652640000007523, 0.17555499999980384, 0.1262841000007029, 0.12698859999909473, 0.2689000999998825, 0.14418140000088897, 0.21995379999862053, 0.22391919999972743, 0.33275270000012824]","[0.0477867999998125, 0.00012860000060754828, 0.00012599999899975955, 0.00011330000052112155, 0.03378370000064024, 0.03323439999985567, 0.03210659999967902, 0.06413379999867175, 0.04683079999995243, 0.033409399999072775, 0.00013100000069243833, 0.04906769999979588, 0.04781050000019604, 0.03296730000147363, 0.0001346000008197734, 0.03365520000079414, 0.04716730000109237, 0.3327553999988595]",15,"[3.3148782000007486, 0.457585600001039, 0.14142639999954554, 0.1746194999996078, 0.20525329999873065, 1.2017304999990301, 0.12588099999993574, 0.15804539999953704, 0.349606899999344, 0.15888690000065253, 0.1586235000013403, 0.14409909999994852, 0.2068330000001879, 0.22369979999893985, 0.23716500000045926]","[8.490000072924886e-05, 9.440000030735973e-05, 0.03119909999986703, 0.04626060000009602, 8.630000047560316e-05, 8.510000043315813e-05, 0.04687059999923804, 0.047710899998492096, 0.04789420000088285, 0.048552800000834395, 0.03299710000101186, 0.04816219999884197, 0.0463675000009971, 0.0481619000001956, 8.8099999629776e-05]",None,None,836472,001,2023-05-05_16h53.38.109,pb,2022.2.5,240.0389823306539,
33,0,33,0,18.94315309999911,18.94315309999911,18.94315309999911,18.94315309999911,19,"[0.7756971999988309, 0.19151419999980135, 0.12733580000167422, 0.9826281999994535, 0.8844864000002417, 0.1756574000010005, 0.14501040000141074, 0.14293069999985164, 0.19130589999986114, 0.15652640000007523, 0.17555499999980384, 0.1262841000007029, 0.12698859999909473, 0.2689000999998825, 0.14418140000088897, 0.21995379999862053, 0.22391919999972743, 0.33275270000012824, 0.19064019999859738]","[0.0477867999998125, 0.00012860000060754828, 0.00012599999899975955, 0.00011330000052112155, 0.03378370000064024, 0.03323439999985567, 0.03210659999967902, 0.06413379999867175, 0.04683079999995243, 0.033409399999072775, 0.00013100000069243833, 0.04906769999979588, 0.04781050000019604, 0.03296730000147363, 0.0001346000008197734, 0.03365520000079414, 0.04716730000109237, 0.04718729999876814, 0.1906433999993169]",15,"[3.3148782000007486, 0.457585600001039, 0.14142639999954554, 0.1746194999996078, 0.20525329999873065, 1.2017304999990301, 0.12588099999993574, 0.15804539999953704, 0.349606899999344, 0.15888690000065253, 0.1586235000013403, 0.14409909999994852, 0.2068330000001879, 0.22369979999893985, 0.23716500000045926]","[8.490000072924886e-05, 9.440000030735973e-05, 0.03119909999986703, 0.04626060000009602, 8.630000047560316e-05, 8.510000043315813e-05, 0.04687059999923804, 0.047710899998492096, 0.04789420000088285, 0.048552800000834395, 0.03299710000101186, 0.04816219999884197, 0.0463675000009971, 0.0481619000001956, 8.8099999629776e-05]",None,None,836472,001,2023-05-05_16h53.38.109,pb,2022.2.5,240.0389823306539,
34,0,34,0,19.150763199999346,19.150763199999346,19.150763199999346,19.150763199999346,20,"[0.7756971999988309, 0.19151419999980135, 0.12733580000167422, 0.9826281999994535, 0.8844864000002417, 0.1756574000010005, 0.14501040000141074, 0.14293069999985164, 0.19130589999986114, 0.15652640000007523, 0.17555499999980384, 0.1262841000007029, 0.12698859999909473, 0.2689000999998825, 0.14418140000088897, 0.21995379999862053, 0.22391919999972743, 0.33275270000012824, 0.19064019999859738, 0.1260141000002477]","[0.0477867999998125, 0.00012860000060754828, 0.00012599999899975955, 0.00011330000052112155, 0.03378370000064024, 0.03323439999985567, 0.03210659999967902, 0.06413379999867175, 0.04683079999995243, 0.033409399999072775, 0.00013100000069243833, 0.04906769999979588, 0.04781050000019604, 0.03296730000147363, 0.0001346000008197734, 0.03365520000079414, 0.04716730000109237, 0.04718729999876814, 0.0001357000001007691, 0.12601709999944433]",15,"[3.3148782000007486, 0.457585600001039, 0.14142639999954554, 0.1746194999996078, 0.20525329999873065, 1.2017304999990301, 0.12588099999993574, 0.15804539999953704, 0.349606899999344, 0.15888690000065253, 0.1586235000013403, 0.14409909999994852, 0.2068330000001879, 0.22369979999893985, 0.23716500000045926]","[8.490000072924886e-05, 9.440000030735973e-05, 0.03119909999986703, 0.04626060000009602, 8.630000047560316e-05, 8.510000043315813e-05, 0.04687059999923804, 0.047710899998492096, 0.04789420000088285, 0.048552800000834395, 0.03299710000101186, 0.04816219999884197, 0.0463675000009971, 0.0481619000001956, 8.8099999629776e-05]",None,None,836472,001,2023-05-05_16h53.38.109,pb,2022.2.5,240.0389823306539,
35,0,35,0,19.291886399998475,19.291886399998475,19.291886399998475,19.291886399998475,21,"[0.7756971999988309, 0.19151419999980135, 0.12733580000167422, 0.9826281999994535, 0.8844864000002417, 0.1756574000010005, 0.14501040000141074, 0.14293069999985164, 0.19130589999986114, 0.15652640000007523, 0.17555499999980384, 0.1262841000007029, 0.12698859999909473, 0.2689000999998825, 0.14418140000088897, 0.21995379999862053, 0.22391919999972743, 0.33275270000012824, 0.19064019999859738, 0.1260141000002477, 0.12803929999972752]","[0.0477867999998125, 0.00012860000060754828, 0.00012599999899975955, 0.00011330000052112155, 0.03378370000064024, 0.03323439999985567, 0.03210659999967902, 0.06413379999867175, 0.04683079999995243, 0.033409399999072775, 0.00013100000069243833, 0.04906769999979588, 0.04781050000019604, 0.03296730000147363, 0.0001346000008197734, 0.03365520000079414, 0.04716730000109237, 0.04718729999876814, 0.0001357000001007691, 0.048409999999421416, 0.12804219999998168]",15,"[3.3148782000007486, 0.457585600001039, 0.14142639999954554, 0.1746194999996078, 0.20525329999873065, 1.2017304999990301, 0.12588099999993574, 0.15804539999953704, 0.349606899999344, 0.15888690000065253, 0.1586235000013403, 0.14409909999994852, 0.2068330000001879, 0.22369979999893985, 0.23716500000045926]","[8.490000072924886e-05, 9.440000030735973e-05, 0.03119909999986703, 0.04626060000009602, 8.630000047560316e-05, 8.510000043315813e-05, 0.04687059999923804, 0.047710899998492096, 0.04789420000088285, 0.048552800000834395, 0.03299710000101186, 0.04816219999884197, 0.0463675000009971, 0.0481619000001956, 8.8099999629776e-05]",None,None,836472,001,2023-05-05_16h53.38.109,pb,2022.2.5,240.0389823306539,
36,0,36,0,19.434954399999697,19.434954399999697,19.434954399999697,19.434954399999697,22,"[0.7756971999988309, 0.19151419999980135, 0.12733580000167422, 0.9826281999994535, 0.8844864000002417, 0.1756574000010005, 0.14501040000141074, 0.14293069999985164, 0.19130589999986114, 0.15652640000007523, 0.17555499999980384, 0.1262841000007029, 0.12698859999909473, 0.2689000999998825, 0.14418140000088897, 0.21995379999862053, 0.22391919999972743, 0.33275270000012824, 0.19064019999859738, 0.1260141000002477, 0.12803929999972752, 0.20553339999969467]","[0.0477867999998125, 0.00012860000060754828, 0.00012599999899975955, 0.00011330000052112155, 0.03378370000064024, 0.03323439999985567, 0.03210659999967902, 0.06413379999867175, 0.04683079999995243, 0.033409399999072775, 0.00013100000069243833, 0.04906769999979588, 0.04781050000019604, 0.03296730000147363, 0.0001346000008197734, 0.03365520000079414, 0.04716730000109237, 0.04718729999876814, 0.0001357000001007691, 0.048409999999421416, 0.07871139999951993, 0.20553629999994882]",15,"[3.3148782000007486, 0.457585600001039, 0.14142639999954554, 0.1746194999996078, 0.20525329999873065, 1.2017304999990301, 0.12588099999993574, 0.15804539999953704, 0.349606899999344, 0.15888690000065253, 0.1586235000013403, 0.14409909999994852, 0.2068330000001879, 0.22369979999893985, 0.23716500000045926]","[8.490000072924886e-05, 9.440000030735973e-05, 0.03119909999986703, 0.04626060000009602, 8.630000047560316e-05, 8.510000043315813e-05, 0.04687059999923804, 0.047710899998492096, 0.04789420000088285, 0.048552800000834395, 0.03299710000101186, 0.04816219999884197, 0.0463675000009971, 0.0481619000001956, 8.8099999629776e-05]",None,None,836472,001,2023-05-05_16h53.38.109,pb,2022.2.5,240.0389823306539,
37,0,37,0,19.654294999998456,19.654294999998456,19.654294999998456,19.654294999998456,23,"[0.7756971999988309, 0.19151419999980135, 0.12733580000167422, 0.9826281999994535, 0.8844864000002417, 0.1756574000010005, 0.14501040000141074, 0.14293069999985164, 0.19130589999986114, 0.15652640000007523, 0.17555499999980384, 0.1262841000007029, 0.12698859999909473, 0.2689000999998825, 0.14418140000088897, 0.21995379999862053, 0.22391919999972743, 0.33275270000012824, 0.19064019999859738, 0.1260141000002477, 0.12803929999972752, 0.20553339999969467, 0.14319590000013704]","[0.0477867999998125, 0.00012860000060754828, 0.00012599999899975955, 0.00011330000052112155, 0.03378370000064024, 0.03323439999985567, 0.03210659999967902, 0.06413379999867175, 0.04683079999995243, 0.033409399999072775, 0.00013100000069243833, 0.04906769999979588, 0.04781050000019604, 0.03296730000147363, 0.0001346000008197734, 0.03365520000079414, 0.04716730000109237, 0.04718729999876814, 0.0001357000001007691, 0.048409999999421416, 0.07871139999951993, 0.0471730999997817, 0.1431996999999683]",15,"[3.3148782000007486, 0.457585600001039, 0.14142639999954554, 0.1746194999996078, 0.20525329999873065, 1.2017304999990301, 0.12588099999993574, 0.15804539999953704, 0.349606899999344, 0.15888690000065253, 0.1586235000013403, 0.14409909999994852, 0.2068330000001879, 0.22369979999893985, 0.23716500000045926]","[8.490000072924886e-05, 9.440000030735973e-05, 0.03119909999986703, 0.04626060000009602, 8.630000047560316e-05, 8.510000043315813e-05, 0.04687059999923804, 0.047710899998492096, 0.04789420000088285, 0.048552800000834395, 0.03299710000101186, 0.04816219999884197, 0.0463675000009971, 0.0481619000001956, 8.8099999629776e-05]",None,None,836472,001,2023-05-05_16h53.38.109,pb,2022.2.5,240.0389823306539,
38,0,38,0,19.814011200000095,19.814011200000095,19.814011200000095,19.814011200000095,24,"[0.7756971999988309, 0.19151419999980135, 0.12733580000167422, 0.9826281999994535, 0.8844864000002417, 0.1756574000010005, 0.14501040000141074, 0.14293069999985164, 0.19130589999986114, 0.15652640000007523, 0.17555499999980384, 0.1262841000007029, 0.12698859999909473, 0.2689000999998825, 0.14418140000088897, 0.21995379999862053, 0.22391919999972743, 0.33275270000012824, 0.19064019999859738, 0.1260141000002477, 0.12803929999972752, 0.20553339999969467, 0.14319590000013704, 0.15905999999995402]","[0.0477867999998125, 0.00012860000060754828, 0.00012599999899975955, 0.00011330000052112155, 0.03378370000064024, 0.03323439999985567, 0.03210659999967902, 0.06413379999867175, 0.04683079999995243, 0.033409399999072775, 0.00013100000069243833, 0.04906769999979588, 0.04781050000019604, 0.03296730000147363, 0.0001346000008197734, 0.03365520000079414, 0.04716730000109237, 0.04718729999876814, 0.0001357000001007691, 0.048409999999421416, 0.07871139999951993, 0.0471730999997817, 0.048494999999093125, 0.15906289999838918]",15,"[3.3148782000007486, 0.457585600001039, 0.14142639999954554, 0.1746194999996078, 0.20525329999873065, 1.2017304999990301, 0.12588099999993574, 0.15804539999953704, 0.349606899999344, 0.15888690000065253, 0.1586235000013403, 0.14409909999994852, 0.2068330000001879, 0.22369979999893985, 0.23716500000045926]","[8.490000072924886e-05, 9.440000030735973e-05, 0.03119909999986703, 0.04626060000009602, 8.630000047560316e-05, 8.510000043315813e-05, 0.04687059999923804, 0.047710899998492096, 0.04789420000088285, 0.048552800000834395, 0.03299710000101186, 0.04816219999884197, 0.0463675000009971, 0.0481619000001956, 8.8099999629776e-05]",None,None,836472,001,2023-05-05_16h53.38.109,pb,2022.2.5,240.0389823306539,
39,0,39,0,19.98725039999954,19.98725039999954,19.98725039999954,19.98725039999954,25,"[0.7756971999988309, 0.19151419999980135, 0.12733580000167422, 0.9826281999994535, 0.8844864000002417, 0.1756574000010005, 0.14501040000141074, 0.14293069999985164, 0.19130589999986114, 0.15652640000007523, 0.17555499999980384, 0.1262841000007029, 0.12698859999909473, 0.2689000999998825, 0.14418140000088897, 0.21995379999862053, 0.22391919999972743, 0.33275270000012824, 0.19064019999859738, 0.1260141000002477, 0.12803929999972752, 0.20553339999969467, 0.14319590000013704, 0.15905999999995402, 0.15921270000035292]","[0.0477867999998125, 0.00012860000060754828, 0.00012599999899975955, 0.00011330000052112155, 0.03378370000064024, 0.03323439999985567, 0.03210659999967902, 0.06413379999867175, 0.04683079999995243, 0.033409399999072775, 0.00013100000069243833, 0.04906769999979588, 0.04781050000019604, 0.03296730000147363, 0.0001346000008197734, 0.03365520000079414, 0.04716730000109237, 0.04718729999876814, 0.0001357000001007691, 0.048409999999421416, 0.07871139999951993, 0.0471730999997817, 0.048494999999093125, 0.04777099999955681, 0.15921589999925345]",15,"[3.3148782000007486, 0.457585600001039, 0.14142639999954554, 0.1746194999996078, 0.20525329999873065, 1.2017304999990301, 0.12588099999993574, 0.15804539999953704, 0.349606899999344, 0.15888690000065253, 0.1586235000013403, 0.14409909999994852, 0.2068330000001879, 0.22369979999893985, 0.23716500000045926]","[8.490000072924886e-05, 9.440000030735973e-05, 0.03119909999986703, 0.04626060000009602, 8.630000047560316e-05, 8.510000043315813e-05, 0.04687059999923804, 0.047710899998492096, 0.04789420000088285, 0.048552800000834395, 0.03299710000101186, 0.04816219999884197, 0.0463675000009971, 0.0481619000001956, 8.8099999629776e-05]",None,None,836472,001,2023-05-05_16h53.38.109,pb,2022.2.5,240.0389823306539,
40,0,40,0,20.162847199999305,20.162847199999305,20.162847199999305,20.162847199999305,26,"[0.7756971999988309, 0.19151419999980135, 0.12733580000167422, 0.9826281999994535, 0.8844864000002417, 0.1756574000010005, 0.14501040000141074, 0.14293069999985164, 0.19130589999986114, 0.15652640000007523, 0.17555499999980384, 0.1262841000007029, 0.12698859999909473, 0.2689000999998825, 0.14418140000088897, 0.21995379999862053, 0.22391919999972743, 0.33275270000012824, 0.19064019999859738, 0.1260141000002477, 0.12803929999972752, 0.20553339999969467, 0.14319590000013704, 0.15905999999995402, 0.15921270000035292, 0.15988149999975576]","[0.0477867999998125, 0.00012860000060754828, 0.00012599999899975955, 0.00011330000052112155, 0.03378370000064024, 0.03323439999985567, 0.03210659999967902, 0.06413379999867175, 0.04683079999995243, 0.033409399999072775, 0.00013100000069243833, 0.04906769999979588, 0.04781050000019604, 0.03296730000147363, 0.0001346000008197734, 0.03365520000079414, 0.04716730000109237, 0.04718729999876814, 0.0001357000001007691, 0.048409999999421416, 0.07871139999951993, 0.0471730999997817, 0.048494999999093125, 0.04777099999955681, 0.04894919999969716, 0.15988500000094064]",15,"[3.3148782000007486, 0.457585600001039, 0.14142639999954554, 0.1746194999996078, 0.20525329999873065, 1.2017304999990301, 0.12588099999993574, 0.15804539999953704, 0.349606899999344, 0.15888690000065253, 0.1586235000013403, 0.14409909999994852, 0.2068330000001879, 0.22369979999893985, 0.23716500000045926]","[8.490000072924886e-05, 9.440000030735973e-05, 0.03119909999986703, 0.04626060000009602, 8.630000047560316e-05, 8.510000043315813e-05, 0.04687059999923804, 0.047710899998492096, 0.04789420000088285, 0.048552800000834395, 0.03299710000101186, 0.04816219999884197, 0.0463675000009971, 0.0481619000001956, 8.8099999629776e-05]",None,None,836472,001,2023-05-05_16h53.38.109,pb,2022.2.5,240.0389823306539,
41,0,41,0,20.321085499999754,20.321085499999754,20.321085499999754,20.321085499999754,27,"[0.7756971999988309, 0.19151419999980135, 0.12733580000167422, 0.9826281999994535, 0.8844864000002417, 0.1756574000010005, 0.14501040000141074, 0.14293069999985164, 0.19130589999986114, 0.15652640000007523, 0.17555499999980384, 0.1262841000007029, 0.12698859999909473, 0.2689000999998825, 0.14418140000088897, 0.21995379999862053, 0.22391919999972743, 0.33275270000012824, 0.19064019999859738, 0.1260141000002477, 0.12803929999972752, 0.20553339999969467, 0.14319590000013704, 0.15905999999995402, 0.15921270000035292, 0.15988149999975576, 0.14424350000081176]","[0.0477867999998125, 0.00012860000060754828, 0.00012599999899975955, 0.00011330000052112155, 0.03378370000064024, 0.03323439999985567, 0.03210659999967902, 0.06413379999867175, 0.04683079999995243, 0.033409399999072775, 0.00013100000069243833, 0.04906769999979588, 0.04781050000019604, 0.03296730000147363, 0.0001346000008197734, 0.03365520000079414, 0.04716730000109237, 0.04718729999876814, 0.0001357000001007691, 0.048409999999421416, 0.07871139999951993, 0.0471730999997817, 0.048494999999093125, 0.04777099999955681, 0.04894919999969716, 0.06467049999992014, 0.14424650000000838]",15,"[3.3148782000007486, 0.457585600001039, 0.14142639999954554, 0.1746194999996078, 0.20525329999873065, 1.2017304999990301, 0.12588099999993574, 0.15804539999953704, 0.349606899999344, 0.15888690000065253, 0.1586235000013403, 0.14409909999994852, 0.2068330000001879, 0.22369979999893985, 0.23716500000045926]","[8.490000072924886e-05, 9.440000030735973e-05, 0.03119909999986703, 0.04626060000009602, 8.630000047560316e-05, 8.510000043315813e-05, 0.04687059999923804, 0.047710899998492096, 0.04789420000088285, 0.048552800000834395, 0.03299710000101186, 0.04816219999884197, 0.0463675000009971, 0.0481619000001956, 8.8099999629776e-05]",None,None,836472,001,2023-05-05_16h53.38.109,pb,2022.2.5,240.0389823306539,
42,0,42,0,20.495795299999372,20.495795299999372,20.495795299999372,20.495795299999372,28,"[0.7756971999988309, 0.19151419999980135, 0.12733580000167422, 0.9826281999994535, 0.8844864000002417, 0.1756574000010005, 0.14501040000141074, 0.14293069999985164, 0.19130589999986114, 0.15652640000007523, 0.17555499999980384, 0.1262841000007029, 0.12698859999909473, 0.2689000999998825, 0.14418140000088897, 0.21995379999862053, 0.22391919999972743, 0.33275270000012824, 0.19064019999859738, 0.1260141000002477, 0.12803929999972752, 0.20553339999969467, 0.14319590000013704, 0.15905999999995402, 0.15921270000035292, 0.15988149999975576, 0.14424350000081176, 0.2051895999993576]","[0.0477867999998125, 0.00012860000060754828, 0.00012599999899975955, 0.00011330000052112155, 0.03378370000064024, 0.03323439999985567, 0.03210659999967902, 0.06413379999867175, 0.04683079999995243, 0.033409399999072775, 0.00013100000069243833, 0.04906769999979588, 0.04781050000019604, 0.03296730000147363, 0.0001346000008197734, 0.03365520000079414, 0.04716730000109237, 0.04718729999876814, 0.0001357000001007691, 0.048409999999421416, 0.07871139999951993, 0.0471730999997817, 0.048494999999093125, 0.04777099999955681, 0.04894919999969716, 0.06467049999992014, 0.07845070000075793, 0.2051926000003732]",15,"[3.3148782000007486, 0.457585600001039, 0.14142639999954554, 0.1746194999996078, 0.20525329999873065, 1.2017304999990301, 0.12588099999993574, 0.15804539999953704, 0.349606899999344, 0.15888690000065253, 0.1586235000013403, 0.14409909999994852, 0.2068330000001879, 0.22369979999893985, 0.23716500000045926]","[8.490000072924886e-05, 9.440000030735973e-05, 0.03119909999986703, 0.04626060000009602, 8.630000047560316e-05, 8.510000043315813e-05, 0.04687059999923804, 0.047710899998492096, 0.04789420000088285, 0.048552800000834395, 0.03299710000101186, 0.04816219999884197, 0.0463675000009971, 0.0481619000001956, 8.8099999629776e-05]",None,None,836472,001,2023-05-05_16h53.38.109,pb,2022.2.5,240.0389823306539,
43,0,43,0,20.71565169999849,20.71565169999849,20.71565169999849,20.71565169999849,29,"[0.7756971999988309, 0.19151419999980135, 0.12733580000167422, 0.9826281999994535, 0.8844864000002417, 0.1756574000010005, 0.14501040000141074, 0.14293069999985164, 0.19130589999986114, 0.15652640000007523, 0.17555499999980384, 0.1262841000007029, 0.12698859999909473, 0.2689000999998825, 0.14418140000088897, 0.21995379999862053, 0.22391919999972743, 0.33275270000012824, 0.19064019999859738, 0.1260141000002477, 0.12803929999972752, 0.20553339999969467, 0.14319590000013704, 0.15905999999995402, 0.15921270000035292, 0.15988149999975576, 0.14424350000081176, 0.2051895999993576, 0.12651450000157638]","[0.0477867999998125, 0.00012860000060754828, 0.00012599999899975955, 0.00011330000052112155, 0.03378370000064024, 0.03323439999985567, 0.03210659999967902, 0.06413379999867175, 0.04683079999995243, 0.033409399999072775, 0.00013100000069243833, 0.04906769999979588, 0.04781050000019604, 0.03296730000147363, 0.0001346000008197734, 0.03365520000079414, 0.04716730000109237, 0.04718729999876814, 0.0001357000001007691, 0.048409999999421416, 0.07871139999951993, 0.0471730999997817, 0.048494999999093125, 0.04777099999955681, 0.04894919999969716, 0.06467049999992014, 0.07845070000075793, 0.00013250000120024197, 0.12651780000123836]",15,"[3.3148782000007486, 0.457585600001039, 0.14142639999954554, 0.1746194999996078, 0.20525329999873065, 1.2017304999990301, 0.12588099999993574, 0.15804539999953704, 0.349606899999344, 0.15888690000065253, 0.1586235000013403, 0.14409909999994852, 0.2068330000001879, 0.22369979999893985, 0.23716500000045926]","[8.490000072924886e-05, 9.440000030735973e-05, 0.03119909999986703, 0.04626060000009602, 8.630000047560316e-05, 8.510000043315813e-05, 0.04687059999923804, 0.047710899998492096, 0.04789420000088285, 0.048552800000834395, 0.03299710000101186, 0.04816219999884197, 0.0463675000009971, 0.0481619000001956, 8.8099999629776e-05]",None,None,836472,001,2023-05-05_16h53.38.109,pb,2022.2.5,240.0389823306539,
44,0,44,0,20.857314899998528,20.857314899998528,20.857314899998528,20.857314899998528,30,"[0.7756971999988309, 0.19151419999980135, 0.12733580000167422, 0.9826281999994535, 0.8844864000002417, 0.1756574000010005, 0.14501040000141074, 0.14293069999985164, 0.19130589999986114, 0.15652640000007523, 0.17555499999980384, 0.1262841000007029, 0.12698859999909473, 0.2689000999998825, 0.14418140000088897, 0.21995379999862053, 0.22391919999972743, 0.33275270000012824, 0.19064019999859738, 0.1260141000002477, 0.12803929999972752, 0.20553339999969467, 0.14319590000013704, 0.15905999999995402, 0.15921270000035292, 0.15988149999975576, 0.14424350000081176, 0.2051895999993576, 0.12651450000157638, 0.15687230000003183]","[0.0477867999998125, 0.00012860000060754828, 0.00012599999899975955, 0.00011330000052112155, 0.03378370000064024, 0.03323439999985567, 0.03210659999967902, 0.06413379999867175, 0.04683079999995243, 0.033409399999072775, 0.00013100000069243833, 0.04906769999979588, 0.04781050000019604, 0.03296730000147363, 0.0001346000008197734, 0.03365520000079414, 0.04716730000109237, 0.04718729999876814, 0.0001357000001007691, 0.048409999999421416, 0.07871139999951993, 0.0471730999997817, 0.048494999999093125, 0.04777099999955681, 0.04894919999969716, 0.06467049999992014, 0.07845070000075793, 0.00013250000120024197, 0.04706090000036056, 0.15687509999952454]",15,"[3.3148782000007486, 0.457585600001039, 0.14142639999954554, 0.1746194999996078, 0.20525329999873065, 1.2017304999990301, 0.12588099999993574, 0.15804539999953704, 0.349606899999344, 0.15888690000065253, 0.1586235000013403, 0.14409909999994852, 0.2068330000001879, 0.22369979999893985, 0.23716500000045926]","[8.490000072924886e-05, 9.440000030735973e-05, 0.03119909999986703, 0.04626060000009602, 8.630000047560316e-05, 8.510000043315813e-05, 0.04687059999923804, 0.047710899998492096, 0.04789420000088285, 0.048552800000834395, 0.03299710000101186, 0.04816219999884197, 0.0463675000009971, 0.0481619000001956, 8.8099999629776e-05]",None,None,836472,001,2023-05-05_16h53.38.109,pb,2022.2.5,240.0389823306539,
45,0,45,0,21.03028549999908,21.03028549999908,21.03028549999908,21.03028549999908,31,"[0.7756971999988309, 0.19151419999980135, 0.12733580000167422, 0.9826281999994535, 0.8844864000002417, 0.1756574000010005, 0.14501040000141074, 0.14293069999985164, 0.19130589999986114, 0.15652640000007523, 0.17555499999980384, 0.1262841000007029, 0.12698859999909473, 0.2689000999998825, 0.14418140000088897, 0.21995379999862053, 0.22391919999972743, 0.33275270000012824, 0.19064019999859738, 0.1260141000002477, 0.12803929999972752, 0.20553339999969467, 0.14319590000013704, 0.15905999999995402, 0.15921270000035292, 0.15988149999975576, 0.14424350000081176, 0.2051895999993576, 0.12651450000157638, 0.15687230000003183, 0.19031360000008135]","[0.0477867999998125, 0.00012860000060754828, 0.00012599999899975955, 0.00011330000052112155, 0.03378370000064024, 0.03323439999985567, 0.03210659999967902, 0.06413379999867175, 0.04683079999995243, 0.033409399999072775, 0.00013100000069243833, 0.04906769999979588, 0.04781050000019604, 0.03296730000147363, 0.0001346000008197734, 0.03365520000079414, 0.04716730000109237, 0.04718729999876814, 0.0001357000001007691, 0.048409999999421416, 0.07871139999951993, 0.0471730999997817, 0.048494999999093125, 0.04777099999955681, 0.04894919999969716, 0.06467049999992014, 0.07845070000075793, 0.00013250000120024197, 0.04706090000036056, 0.07841009999901871, 0.19031649999851652]",15,"[3.3148782000007486, 0.457585600001039, 0.14142639999954554, 0.1746194999996078, 0.20525329999873065, 1.2017304999990301, 0.12588099999993574, 0.15804539999953704, 0.349606899999344, 0.15888690000065253, 0.1586235000013403, 0.14409909999994852, 0.2068330000001879, 0.22369979999893985, 0.23716500000045926]","[8.490000072924886e-05, 9.440000030735973e-05, 0.03119909999986703, 0.04626060000009602, 8.630000047560316e-05, 8.510000043315813e-05, 0.04687059999923804, 0.047710899998492096, 0.04789420000088285, 0.048552800000834395, 0.03299710000101186, 0.04816219999884197, 0.0463675000009971, 0.0481619000001956, 8.8099999629776e-05]",None,None,836472,001,2023-05-05_16h53.38.109,pb,2022.2.5,240.0389823306539,
46,0,46,0,21.235100899999452,21.235100899999452,21.235100899999452,21.235100899999452,32,"[0.7756971999988309, 0.19151419999980135, 0.12733580000167422, 0.9826281999994535, 0.8844864000002417, 0.1756574000010005, 0.14501040000141074, 0.14293069999985164, 0.19130589999986114, 0.15652640000007523, 0.17555499999980384, 0.1262841000007029, 0.12698859999909473, 0.2689000999998825, 0.14418140000088897, 0.21995379999862053, 0.22391919999972743, 0.33275270000012824, 0.19064019999859738, 0.1260141000002477, 0.12803929999972752, 0.20553339999969467, 0.14319590000013704, 0.15905999999995402, 0.15921270000035292, 0.15988149999975576, 0.14424350000081176, 0.2051895999993576, 0.12651450000157638, 0.15687230000003183, 0.19031360000008135, 0.15787230000023555]","[0.0477867999998125, 0.00012860000060754828, 0.00012599999899975955, 0.00011330000052112155, 0.03378370000064024, 0.03323439999985567, 0.03210659999967902, 0.06413379999867175, 0.04683079999995243, 0.033409399999072775, 0.00013100000069243833, 0.04906769999979588, 0.04781050000019604, 0.03296730000147363, 0.0001346000008197734, 0.03365520000079414, 0.04716730000109237, 0.04718729999876814, 0.0001357000001007691, 0.048409999999421416, 0.07871139999951993, 0.0471730999997817, 0.048494999999093125, 0.04777099999955681, 0.04894919999969716, 0.06467049999992014, 0.07845070000075793, 0.00013250000120024197, 0.04706090000036056, 0.07841009999901871, 0.047788300000320305, 0.15787519999867072]",15,"[3.3148782000007486, 0.457585600001039, 0.14142639999954554, 0.1746194999996078, 0.20525329999873065, 1.2017304999990301, 0.12588099999993574, 0.15804539999953704, 0.349606899999344, 0.15888690000065253, 0.1586235000013403, 0.14409909999994852, 0.2068330000001879, 0.22369979999893985, 0.23716500000045926]","[8.490000072924886e-05, 9.440000030735973e-05, 0.03119909999986703, 0.04626060000009602, 8.630000047560316e-05, 8.510000043315813e-05, 0.04687059999923804, 0.047710899998492096, 0.04789420000088285, 0.048552800000834395, 0.03299710000101186, 0.04816219999884197, 0.0463675000009971, 0.0481619000001956, 8.8099999629776e-05]",None,None,836472,001,2023-05-05_16h53.38.109,pb,2022.2.5,240.0389823306539,
47,0,47,0,21.392858699999124,21.392858699999124,21.392858699999124,21.392858699999124,33,"[0.7756971999988309, 0.19151419999980135, 0.12733580000167422, 0.9826281999994535, 0.8844864000002417, 0.1756574000010005, 0.14501040000141074, 0.14293069999985164, 0.19130589999986114, 0.15652640000007523, 0.17555499999980384, 0.1262841000007029, 0.12698859999909473, 0.2689000999998825, 0.14418140000088897, 0.21995379999862053, 0.22391919999972743, 0.33275270000012824, 0.19064019999859738, 0.1260141000002477, 0.12803929999972752, 0.20553339999969467, 0.14319590000013704, 0.15905999999995402, 0.15921270000035292, 0.15988149999975576, 0.14424350000081176, 0.2051895999993576, 0.12651450000157638, 0.15687230000003183, 0.19031360000008135, 0.15787230000023555, 0.1905203000005713]","[0.0477867999998125, 0.00012860000060754828, 0.00012599999899975955, 0.00011330000052112155, 0.03378370000064024, 0.03323439999985567, 0.03210659999967902, 0.06413379999867175, 0.04683079999995243, 0.033409399999072775, 0.00013100000069243833, 0.04906769999979588, 0.04781050000019604, 0.03296730000147363, 0.0001346000008197734, 0.03365520000079414, 0.04716730000109237, 0.04718729999876814, 0.0001357000001007691, 0.048409999999421416, 0.07871139999951993, 0.0471730999997817, 0.048494999999093125, 0.04777099999955681, 0.04894919999969716, 0.06467049999992014, 0.07845070000075793, 0.00013250000120024197, 0.04706090000036056, 0.07841009999901871, 0.047788300000320305, 0.06373069999972358, 0.19052349999947182]",15,"[3.3148782000007486, 0.457585600001039, 0.14142639999954554, 0.1746194999996078, 0.20525329999873065, 1.2017304999990301, 0.12588099999993574, 0.15804539999953704, 0.349606899999344, 0.15888690000065253, 0.1586235000013403, 0.14409909999994852, 0.2068330000001879, 0.22369979999893985, 0.23716500000045926]","[8.490000072924886e-05, 9.440000030735973e-05, 0.03119909999986703, 0.04626060000009602, 8.630000047560316e-05, 8.510000043315813e-05, 0.04687059999923804, 0.047710899998492096, 0.04789420000088285, 0.048552800000834395, 0.03299710000101186, 0.04816219999884197, 0.0463675000009971, 0.0481619000001956, 8.8099999629776e-05]",None,None,836472,001,2023-05-05_16h53.38.109,pb,2022.2.5,240.0389823306539,
48,0,48,0,21.613398899999083,21.613398899999083,21.613398899999083,21.613398899999083,34,"[0.7756971999988309, 0.19151419999980135, 0.12733580000167422, 0.9826281999994535, 0.8844864000002417, 0.1756574000010005, 0.14501040000141074, 0.14293069999985164, 0.19130589999986114, 0.15652640000007523, 0.17555499999980384, 0.1262841000007029, 0.12698859999909473, 0.2689000999998825, 0.14418140000088897, 0.21995379999862053, 0.22391919999972743, 0.33275270000012824, 0.19064019999859738, 0.1260141000002477, 0.12803929999972752, 0.20553339999969467, 0.14319590000013704, 0.15905999999995402, 0.15921270000035292, 0.15988149999975576, 0.14424350000081176, 0.2051895999993576, 0.12651450000157638, 0.15687230000003183, 0.19031360000008135, 0.15787230000023555, 0.1905203000005713, 0.1107188000005408]","[0.0477867999998125, 0.00012860000060754828, 0.00012599999899975955, 0.00011330000052112155, 0.03378370000064024, 0.03323439999985567, 0.03210659999967902, 0.06413379999867175, 0.04683079999995243, 0.033409399999072775, 0.00013100000069243833, 0.04906769999979588, 0.04781050000019604, 0.03296730000147363, 0.0001346000008197734, 0.03365520000079414, 0.04716730000109237, 0.04718729999876814, 0.0001357000001007691, 0.048409999999421416, 0.07871139999951993, 0.0471730999997817, 0.048494999999093125, 0.04777099999955681, 0.04894919999969716, 0.06467049999992014, 0.07845070000075793, 0.00013250000120024197, 0.04706090000036056, 0.07841009999901871, 0.047788300000320305, 0.06373069999972358, 0.0001295000001846347, 0.11072190000049886]",15,"[3.3148782000007486, 0.457585600001039, 0.14142639999954554, 0.1746194999996078, 0.20525329999873065, 1.2017304999990301, 0.12588099999993574, 0.15804539999953704, 0.349606899999344, 0.15888690000065253, 0.1586235000013403, 0.14409909999994852, 0.2068330000001879, 0.22369979999893985, 0.23716500000045926]","[8.490000072924886e-05, 9.440000030735973e-05, 0.03119909999986703, 0.04626060000009602, 8.630000047560316e-05, 8.510000043315813e-05, 0.04687059999923804, 0.047710899998492096, 0.04789420000088285, 0.048552800000834395, 0.03299710000101186, 0.04816219999884197, 0.0463675000009971, 0.0481619000001956, 8.8099999629776e-05]",None,None,836472,001,2023-05-05_16h53.38.109,pb,2022.2.5,240.0389823306539,
49,0,49,0,21.739332399998602,21.739332399998602,21.739332399998602,21.739332399998602,35,"[0.7756971999988309, 0.19151419999980135, 0.12733580000167422, 0.9826281999994535, 0.8844864000002417, 0.1756574000010005, 0.14501040000141074, 0.14293069999985164, 0.19130589999986114, 0.15652640000007523, 0.17555499999980384, 0.1262841000007029, 0.12698859999909473, 0.2689000999998825, 0.14418140000088897, 0.21995379999862053, 0.22391919999972743, 0.33275270000012824, 0.19064019999859738, 0.1260141000002477, 0.12803929999972752, 0.20553339999969467, 0.14319590000013704, 0.15905999999995402, 0.15921270000035292, 0.15988149999975576, 0.14424350000081176, 0.2051895999993576, 0.12651450000157638, 0.15687230000003183, 0.19031360000008135, 0.15787230000023555, 0.1905203000005713, 0.1107188000005408, 0.18953749999855063]","[0.0477867999998125, 0.00012860000060754828, 0.00012599999899975955, 0.00011330000052112155, 0.03378370000064024, 0.03323439999985567, 0.03210659999967902, 0.06413379999867175, 0.04683079999995243, 0.033409399999072775, 0.00013100000069243833, 0.04906769999979588, 0.04781050000019604, 0.03296730000147363, 0.0001346000008197734, 0.03365520000079414, 0.04716730000109237, 0.04718729999876814, 0.0001357000001007691, 0.048409999999421416, 0.07871139999951993, 0.0471730999997817, 0.048494999999093125, 0.04777099999955681, 0.04894919999969716, 0.06467049999992014, 0.07845070000075793, 0.00013250000120024197, 0.04706090000036056, 0.07841009999901871, 0.047788300000320305, 0.06373069999972358, 0.0001295000001846347, 0.07929079999848909, 0.1895405999985087]",15,"[3.3148782000007486, 0.457585600001039, 0.14142639999954554, 0.1746194999996078, 0.20525329999873065, 1.2017304999990301, 0.12588099999993574, 0.15804539999953704, 0.349606899999344, 0.15888690000065253, 0.1586235000013403, 0.14409909999994852, 0.2068330000001879, 0.22369979999893985, 0.23716500000045926]","[8.490000072924886e-05, 9.440000030735973e-05, 0.03119909999986703, 0.04626060000009602, 8.630000047560316e-05, 8.510000043315813e-05, 0.04687059999923804, 0.047710899998492096, 0.04789420000088285, 0.048552800000834395, 0.03299710000101186, 0.04816219999884197, 0.0463675000009971, 0.0481619000001956, 8.8099999629776e-05]",None,None,836472,001,2023-05-05_16h53.38.109,pb,2022.2.5,240.0389823306539,
,,,,21.944542699999147,21.944542699999147,21.944542699999147,21.944542699999147,,,,,,,,,,,,,,,
